rcThrottle,rcRoll,rcPitch,rcYaw,ekf.phi,ekf.theta,ekf.psi,lpfGyrX,lpfGyrY,lpfGyrZ,lpfAccX,lpfAccY,lpfAccZ
0,0,0.095885108,0.084147098,0.001209249,0.073043863,0,-2.731585673,5.167180108,0.03916739,-0.609525333,-0.1099884,9.677717338
0.0008,0.001005305,0.096546106,0.084282625,-0.009734789,0.093708478,0.001734257,0.383392987,3.354419512,0.029189053,-0.898455167,0.05786302,9.613964225
0.0016,0.002010585,0.097205733,0.08441762,0.004306876,0.099852849,6.250758645,0.188813505,-1.385596232,0.032458596,-0.924280819,0.193933911,9.630839255
0.0024,0.003015815,0.097863978,0.084552081,-0.008223399,0.082700557,0.00613864,-0.795990672,2.394755321,0.025982001,-0.786476443,-0.020824028,9.742529684
0.0032,0.004020968,0.098520832,0.084686008,-0.002044887,0.119002633,0.046699358,2.159131207,2.644430346,0.036649991,-1.203444045,-0.082907588,9.746630701
0.004,0.005026019,0.099176286,0.084819401,0.008981181,0.103742419,0.038401799,-0.266273437,-2.828952092,0.029898786,-0.795998836,0.156077852,9.789841724
0.0048,0.006030944,0.099830331,0.084952257,-0.0041884,0.096386922,6.241526337,-1.395697727,-1.779039056,0.026878936,-0.937766185,0.010880563,9.829745302
0.0056,0.007035716,0.100482957,0.085084577,-0.002146022,0.089441459,0.001061147,0.907266205,-0.167585891,0.031758724,-0.828417958,0.02659017,9.641452378
0.0064,0.00804031,0.101134154,0.085216359,0.003074779,0.095066063,0.034133816,-1.244157534,-0.115696292,0.025691929,-0.934761084,0.158396562,9.65281127
0.0072,0.009044701,0.101783914,0.085347604,-0.01204668,0.088502267,0.019812362,-0.379615889,0.121067848,0.029618146,-1.026930918,-0.277347566,9.729788225
0.008,0.010048864,0.102432228,0.085478309,3.04E-05,0.096026627,0.000273152,3.983107329,0.559753907,0.037771466,-0.860596123,-0.022877516,9.882908791
0.0088,0.011052772,0.103079086,0.085608474,0.019806763,0.093001684,6.277207817,0.221391027,1.832851227,0.032761926,-0.883155738,0.14404387,9.770778344
0.0096,0.012056402,0.103724479,0.085738098,0.001777656,0.110762035,6.271557095,-2.461772323,2.799194405,0.038694657,-1.019218191,0.096837201,9.654764268
0.0104,0.013059727,0.104368398,0.085867181,0.000123649,0.115320908,6.257253152,1.806949144,-2.75796808,0.031496966,-1.043769214,-0.122290134,9.648904141
0.0112,0.014062722,0.105010833,0.085995722,0.01621181,0.088673007,0.056200812,1.370811028,-1.969601788,0.025416797,-0.728844752,0.136791823,9.916713319
0.012,0.015065361,0.105651776,0.086123719,0.011059259,0.099513032,6.264721288,-1.540652888,1.289997786,0.028696211,-0.727471703,0.296419734,9.630312253
0.0128,0.01606762,0.106291218,0.086251172,0.003979429,0.098964915,0.03012736,2.353980307,1.869050494,0.042087041,-0.917328472,0.125727413,9.868479736
0.0136,0.017069473,0.106929149,0.086378081,0.029840831,0.114421002,6.254380685,0.478139074,0.210456956,0.029160088,-1.018628288,0.429248403,9.664304882
0.0144,0.018070895,0.10756556,0.086504443,0.00777465,0.100637352,0.028393972,0.392659698,-1.434556493,0.030934581,-0.998895325,0.213690595,9.699266341
0.0152,0.01907186,0.108200442,0.08663026,0.032975099,0.102935077,0.027614492,2.473999883,2.810514027,0.019094643,-1.00904024,0.41784486,9.552699218
0.016,0.020072343,0.108833787,0.086755529,0.027490273,0.123154886,6.265692461,-1.825647713,0.32787763,0.03096167,-1.166130644,0.215947209,9.613858837
0.0168,0.021072319,0.109465585,0.08688025,0.018373168,0.105570212,6.255230345,-1.007952162,-1.030640149,0.029402298,-0.83033115,0.089257237,9.622162498
0.0176,0.022071763,0.110095827,0.087004423,0.019360906,0.114901626,0.036387193,1.466734002,-1.502244097,0.027748146,-1.142037177,0.189046199,9.652528503
0.0184,0.023070649,0.110724504,0.087128046,0.030119992,0.093540262,0.012055868,1.182022439,1.249399873,0.026369708,-0.830348818,0.369437049,9.678807485
0.0192,0.024068952,0.111351608,0.087251118,0.028777345,0.124901946,0.050393195,-1.450707492,2.224842176,0.035428866,-1.502910612,0.112618146,9.758787634
0.02,0.025066647,0.111977129,0.08737364,0.018544306,0.111317007,6.262546371,1.17651903,-0.806288311,0.034648699,-1.099384725,0.178531502,9.812364524
0.0208,0.026063708,0.112601059,0.087495609,0.038264054,0.118398515,0.036406612,0.811355278,0.298266618,0.024829525,-1.107671289,0.291434717,9.662829673
0.0216,0.027060111,0.113223388,0.087617026,0.025005818,0.113699474,0.053183682,-0.483111585,2.687843583,0.035529476,-1.285468733,0.208871446,9.55296326
0.0224,0.028055831,0.113844109,0.087737889,0.03437113,0.13993649,0.038358177,2.519457255,0.347343545,0.027362959,-1.38152776,0.330176797,9.686840995
0.0232,0.029050841,0.114463211,0.087858199,0.045236505,0.116529717,0.031615437,-1.684534199,-3.920874695,0.033808934,-0.988626998,0.444578325,9.858874231
0.024,0.030045118,0.115080687,0.087977953,0.020806216,0.108527872,6.259141531,-1.15147366,0.134065569,0.023962275,-1.109610626,0.212591955,9.768252736
0.0248,0.031038635,0.115696527,0.088097151,0.036018707,0.117610867,6.268890365,3.019965422,0.491617163,0.026217043,-1.198051166,0.337149441,9.782816632
0.0256,0.032031368,0.116310722,0.088215793,0.044990805,0.112378164,0.013509907,-2.903869763,-0.046089704,0.031060486,-1.073123948,0.572712224,9.782135913
0.0264,0.033023292,0.116923265,0.088333878,0.012738183,0.117256881,0.073831706,0.115619,0.684248639,0.02566665,-1.24605358,-0.010599259,9.599005349
0.0272,0.034014382,0.117534146,0.088451405,0.04598681,0.117889609,0.001241555,4.335895085,-1.081281685,0.02405204,-1.092372939,0.405697666,9.60579869
0.028,0.035004612,0.118143356,0.088568373,0.047413446,0.108667757,0.02588141,-0.010139312,-0.345196071,0.026892533,-0.925532572,0.624072076,9.819984622
0.0288,0.035993957,0.118750888,0.088684782,0.045937656,0.115124721,0.032241715,1.695090897,1.222050031,0.037354555,-1.1833745,0.394425229,9.736354544
0.0296,0.036982394,0.119356732,0.088800631,0.060935738,0.11839961,6.277950402,0.315846119,2.690306314,0.029701082,-1.273074756,0.612762863,9.590724522
0.0304,0.037969895,0.119960879,0.088915918,0.048506524,0.136693996,6.281104098,-4.134767931,-1.360857065,0.036536405,-1.410452327,0.480957968,9.769161323
0.0312,0.038956438,0.120563321,0.089030644,0.027987045,0.107591196,0.079414843,-2.090037836,-1.945758554,0.034547412,-1.067248473,0.125617244,9.665683885
0.032,0.039941996,0.121164051,0.089144808,0.031745303,0.121179462,0.011004308,1.408481205,0.4110324,0.032613758,-1.111808473,0.162273325,9.564216889
0.0328,0.040926545,0.121763058,0.089258408,0.039365537,0.110878193,6.265504221,-0.570216052,0.218560265,0.03465529,-0.91167208,0.454340469,9.684900454
0.0336,0.04191006,0.122360334,0.089371445,0.027164754,0.122913139,0.073420193,-0.245244967,0.030097898,0.03601105,-1.346497737,0.132019822,9.838622731
0.0344,0.042892516,0.122955871,0.089483917,0.037400306,0.111151856,6.269067166,1.900111662,0.442577269,0.028521735,-1.069364325,0.395718229,9.916292314
0.0352,0.043873888,0.123549661,0.089595824,0.042371572,0.126405374,0.074074497,1.46493691,-0.083730596,0.028724246,-1.154533568,0.215786066,9.588799792
0.036,0.044854152,0.124141696,0.089707165,0.049129688,0.110462743,0.022153134,0.557124281,-0.399723815,0.028995782,-0.926650774,0.43269074,9.820848101
0.0368,0.045833283,0.124731965,0.08981794,0.046777058,0.123205798,0.036457843,0.800757841,0.938524569,0.030791561,-1.168467881,0.457460039,9.751636692
0.0376,0.046811255,0.125320462,0.089928147,0.055557437,0.117915534,0.018555113,-1.563960832,1.697994351,0.023583523,-1.132221416,0.372144347,9.716859398
0.0384,0.047788045,0.125907178,0.090037786,0.03426384,0.136746322,0.043133556,-0.006392466,3.98558052,0.02460287,-1.366076268,0.341281425,9.794301149
0.0392,0.048763627,0.126492105,0.090146856,0.055544473,0.149888781,0.008530429,1.223651128,-0.737225419,0.023145143,-1.582651608,0.583318583,9.696424174
0.04,0.049737977,0.127075234,0.090255357,0.044056163,0.130823258,0.039389636,0.701392143,-0.999332716,0.026182759,-1.382069671,0.492156701,9.717368767
0.0408,0.050711071,0.127656556,0.090363288,0.061177663,0.141943891,0.02554822,1.524650367,0.667832547,0.033087154,-1.162192174,0.658871879,9.835699898
0.0416,0.051682883,0.128236065,0.090470648,0.05629561,0.136231729,0.069183702,-3.070585211,-1.559972741,0.028783017,-1.341161722,0.588901881,9.766511381
0.0424,0.05265339,0.128813751,0.090577436,0.036620123,0.129504642,0.015725666,1.563147371,-0.531331063,0.023142859,-1.367486743,0.365340186,9.815475737
0.0432,0.053622566,0.129389606,0.090683653,0.068815105,0.131983612,0.060666018,1.705644068,-0.099789798,0.025943007,-1.194817034,0.714956018,9.967076806
0.044,0.054590387,0.129963623,0.090789296,0.05027962,0.128666661,0.014782327,-4.171743701,1.826866195,0.033959259,-1.169157201,0.486420903,9.590293893
0.0448,0.055556829,0.130535792,0.090894366,0.035424748,0.146561915,0.051891982,1.832007368,-0.456461876,0.029727538,-1.378954176,0.325462475,9.80286915
0.0456,0.056521867,0.131106106,0.090998862,0.06491172,0.124978408,0.025487048,3.575282838,-1.103084902,0.027045978,-1.159632489,0.61198471,9.843264155
0.0464,0.057485478,0.131674557,0.091102784,0.064000855,0.137736174,0.060852311,0.574571851,-0.079833345,0.025521708,-1.33871475,0.570228285,9.86593916
0.0472,0.058447635,0.132241136,0.091206129,0.069520239,0.124341787,0.073896968,1.989506681,0.011831654,0.027380587,-1.314497878,0.585548269,9.662461032
0.048,0.059408316,0.132805836,0.091308899,0.079906287,0.137866937,0.024197658,-1.375182204,-0.270825551,0.023722885,-1.348261434,0.848434328,9.920009522
0.0488,0.060367496,0.133368648,0.091411092,0.058556157,0.122223774,0.074619437,-2.747202181,1.085466886,0.019394296,-1.156589424,0.445862387,9.69354479
0.0496,0.061325151,0.133929565,0.091512707,0.05786104,0.146559284,0.085254965,0.461807428,3.008029588,0.024558166,-1.544547507,0.555540751,9.710657145
0.0504,0.062281256,0.134488579,0.091613745,0.062244159,0.14624883,0.024776051,1.614038937,-2.516930385,0.035128038,-1.224475917,0.746406938,9.838460464
0.0512,0.063235788,0.135045681,0.091714203,0.070754231,0.126373699,0.042758056,1.479985548,-0.461353677,0.026930458,-1.127433723,0.663224159,9.612199308
0.052,0.064188722,0.135600864,0.091814083,0.074068319,0.142572923,0.026450449,0.874817076,-0.944081799,0.0271402,-1.45956958,0.707122245,9.733055002
0.0528,0.065140034,0.13615412,0.091913382,0.077722567,0.11878937,0.054980141,-0.293630329,-0.518453436,0.027006105,-1.125925691,0.761137206,9.63364933
0.0536,0.0660897,0.13670544,0.092012101,0.071704814,0.138454412,0.012479502,-1.097484253,2.980941246,0.027360522,-1.354747183,0.803147264,9.689410761
0.0544,0.067037697,0.137254818,0.092110239,0.068978655,0.142573059,0.075906686,-1.708436464,0.958136712,0.029432935,-1.614181107,0.522510396,9.647234617
0.0552,0.067984,0.137802245,0.092207795,0.058096881,0.146171319,0.089560129,0.308483187,0.189869461,0.027598299,-1.468844701,0.56360833,9.698975586
0.056,0.068928585,0.138347714,0.092304768,0.071494165,0.144072202,0.032950175,0.542116395,-1.846279448,0.025865087,-1.358161718,0.821354226,9.623582022
0.0568,0.069871428,0.138891216,0.092401159,0.062437755,0.131437255,0.011892485,-2.283424205,-3.870395228,0.027667958,-1.312981453,0.414045759,9.852176911
0.0576,0.070812506,0.139432745,0.092496965,0.053261943,0.113114092,0.070011694,1.733586587,1.980203842,0.028412742,-1.021018678,0.587169617,9.780648693
0.0584,0.071751795,0.139972291,0.092592188,0.076313913,0.147347364,0.049904597,1.440603486,4.015872234,0.023588171,-1.554481498,0.766350606,9.72951921
0.0592,0.072689271,0.140509849,0.092686825,0.064756236,0.145261759,0.046254879,-0.673127366,-1.57061196,0.021628946,-1.37669967,0.748140826,9.675047829
0.06,0.073624911,0.141045409,0.092780878,0.070953629,0.134796859,0.101249887,2.884002194,-1.541182447,0.01607458,-1.229714304,0.67886078,9.904272315
0.0608,0.07455869,0.141578965,0.092874344,0.087820513,0.132941035,0.016614625,-0.588675391,1.75658443,0.026057006,-1.435576255,1.071994256,9.551386776
0.0616,0.075490585,0.142110509,0.092967223,0.066269704,0.148850084,0.053689947,-3.519541349,0.653474689,0.028137874,-1.555561725,0.743910864,9.802749426
0.0624,0.076420573,0.142640033,0.093059515,0.059634247,0.138159143,0.033376654,1.898851363,0.583186462,0.015982009,-1.248873852,0.64472321,9.764158015
0.0632,0.07734863,0.14316753,0.09315122,0.081487217,0.153554065,0.023286108,1.459491431,1.816979964,0.018869486,-1.392205767,0.683853611,9.565901937
0.064,0.078274733,0.143692992,0.093242336,0.071364079,0.152669891,0.110130013,-1.033005065,-1.779100157,0.030163971,-1.494102359,0.744490591,9.513451451
0.0648,0.079198859,0.144216412,0.093332863,0.073234066,0.139303801,0.111279448,-0.123677176,-0.696834373,0.024857379,-1.402581488,0.597028136,9.699021225
0.0656,0.080120983,0.144737782,0.0934228,0.070368266,0.147117973,0.027384298,2.810273463,2.124665977,0.030643698,-1.427428291,0.756369817,9.613353637
0.0664,0.081041083,0.145257096,0.093512148,0.095692424,0.156311356,0.049311618,3.010781592,0.103298602,0.015194694,-1.60560485,1.006946089,9.593436473
0.0672,0.081959135,0.145774344,0.093600905,0.09446458,0.147954614,0.085288391,-2.291677011,-1.278175097,0.021782809,-1.291817131,0.848672438,9.747518112
0.068,0.082875116,0.146289521,0.09368907,0.077376257,0.1460585,0.041258832,-0.359201541,-0.606672171,0.021269185,-1.437078034,0.741754233,9.765061754
0.0688,0.083789004,0.146802619,0.093776644,0.091598744,0.143063786,0.077698918,1.160328774,0.431364519,0.02309298,-1.496547674,0.957463508,9.583094967
0.0696,0.084700774,0.147313631,0.093863625,0.086659975,0.149511371,0.066064358,-2.45781071,0.230050404,0.033119884,-1.517928279,0.72376285,9.755803433
0.0704,0.085610405,0.147822549,0.093950014,0.071942593,0.144844059,0.065415596,-2.194976009,0.381539376,0.021281738,-1.581871594,0.775689862,9.698074245
0.0712,0.086517872,0.148329366,0.094035809,0.069047887,0.152539056,0.083111152,1.471928901,1.887067938,0.022584027,-1.515400185,0.826925698,9.453469687
0.072,0.087423153,0.148834075,0.09412101,0.083716715,0.159990324,0.097893689,3.794676504,0.763868974,0.023729627,-1.508041301,0.793559169,9.733940348
0.0728,0.088326226,0.149336668,0.094205616,0.099395778,0.158626423,0.036853252,1.756738632,-3.952560041,0.035953359,-1.489007412,0.870907933,9.808821786
0.0736,0.089227067,0.14983714,0.094289628,0.097819908,0.128444841,0.088521552,0.439024666,-0.370098972,0.025957983,-1.232579729,0.946727959,9.72227497
0.0744,0.090125653,0.150335481,0.094373044,0.102947786,0.155731983,0.083209063,-2.32611737,1.9026178,0.02756018,-1.526411218,1.027368385,9.380397547
0.0752,0.091021963,0.150831687,0.094455863,0.079163986,0.143673261,0.030978647,0.008365275,-0.722155849,0.020733981,-1.379405084,0.86431244,9.50972872
0.076,0.091915972,0.151325748,0.094538086,0.103000843,0.149994161,0.058710705,0.673118992,-0.367945112,0.018486204,-1.358454438,1.062213658,9.595698663
0.0768,0.092807659,0.151817659,0.094619712,0.084526935,0.140715576,0.039850845,-1.934383659,-0.099023155,0.017307231,-1.423754367,0.884209515,9.586345754
0.0776,0.093697002,0.152307412,0.094700741,0.087575628,0.149183164,0.050024633,-0.036581274,1.421998555,0.018322351,-1.358696245,0.823525107,9.569117009
0.0784,0.094583977,0.152795001,0.094781171,0.084200247,0.152062576,0.124658639,-0.160644818,1.548674604,0.019389943,-1.492094685,0.575990496,9.643896907
0.0792,0.095468562,0.153280418,0.094861002,0.086372758,0.161609847,0.125621089,3.454242179,2.622027066,0.032960213,-1.628877623,0.838677565,9.731001679
0.08,0.096350735,0.153763656,0.094940235,0.111854181,0.173066138,0.11461474,3.825399582,-0.901829708,0.026562545,-1.65455777,1.046835756,9.459299385
0.0808,0.097230473,0.154244709,0.095018867,0.116995994,0.154340808,0.083392437,-0.168174676,-1.71525812,0.02224782,-1.374771478,1.077638904,9.470570667
0.0816,0.098107755,0.15472357,0.0950969,0.11050115,0.159284941,0.068805613,-1.86673303,0.790112885,0.016025044,-1.566372741,1.168162551,9.770914409
0.0824,0.098982559,0.155200232,0.095174331,0.102037607,0.160634034,0.036363244,-1.058012731,1.178737593,0.030105738,-1.550863839,0.854962374,9.801133292
0.0832,0.099854861,0.155674689,0.095251162,0.102047076,0.168665223,0.086598597,0.462416407,0.38834177,0.025362446,-1.524647644,0.977935968,9.577609086
0.084,0.10072464,0.156146933,0.095327391,0.1057826,0.163712585,0.109853689,0.926538825,-1.236779536,0.017924149,-1.44717737,1.064416873,9.631255161
0.0848,0.101591875,0.156616957,0.095403017,0.109527406,0.158728518,0.079027252,0.224227288,-0.738603165,0.017486464,-1.519782226,1.070264554,9.546661824
0.0856,0.102456542,0.157084756,0.095478041,0.107551439,0.157727478,0.077275789,-2.542266311,0.977597807,0.026674228,-1.467525154,1.017074208,9.694382119
0.0864,0.103318621,0.157550322,0.095552462,0.089204941,0.166605023,0.106069839,-0.431733623,-0.129105992,0.01260575,-1.635905018,0.857752769,9.638199726
0.0872,0.10417809,0.158013649,0.09562628,0.104088495,0.156632594,0.062387239,2.807689298,-1.304023594,0.022364638,-1.57721754,0.904969837,9.580118384
0.088,0.105034926,0.158474731,0.095699493,0.111644823,0.156136131,0.121834237,1.211932923,-0.312458241,0.019132804,-1.436779199,0.993900479,9.67062772
0.0888,0.105889108,0.15893356,0.095772102,0.113716599,0.154121529,0.074273125,-0.846991786,0.003836699,0.022109593,-1.548452,0.948077952,9.699590945
0.0896,0.106740615,0.15939013,0.095844106,0.104885133,0.156209068,0.054259003,-2.741701612,1.089993682,0.014480701,-1.484232726,0.833013305,9.682913049
0.0904,0.107589426,0.159844435,0.095915505,0.091783902,0.162813728,0.062653943,1.111426757,2.246346581,0.020927435,-1.474972448,0.837334774,9.484277953
0.0912,0.108435517,0.160296469,0.095986297,0.113794001,0.17421606,0.115362699,2.43353531,-0.355467006,0.01618784,-1.781581467,1.132042372,9.461309592
0.092,0.109278869,0.160746224,0.096056484,0.111249388,0.159961756,0.103286274,-2.509034079,-1.933350996,0.016647885,-1.498700339,1.050477619,9.57685631
0.0928,0.11011946,0.161193694,0.096126064,0.09372836,0.158731358,0.071845815,0.891866399,1.519283728,0.016626077,-1.570025859,0.81813744,9.495648624
0.0936,0.110957269,0.161638874,0.096195036,0.118422892,0.172145769,0.04391789,2.965350551,-0.127759324,0.014346624,-1.753663746,1.160491612,9.474670155
0.0944,0.111792274,0.162081756,0.096263401,0.117433853,0.157762595,0.125994797,1.843248604,-2.381929432,0.017473951,-1.54328491,1.207168075,9.537227395
0.0952,0.112624455,0.162522335,0.096331158,0.133185328,0.153046599,0.131381118,-1.436300639,-1.290939585,0.019542827,-1.372063356,1.248278177,9.616979499
0.096,0.11345379,0.162960604,0.096398306,0.105951731,0.147501145,0.054988351,-3.009484975,2.4951139,0.017329051,-1.396302678,1.120072241,9.591601698
0.0968,0.114280258,0.163396557,0.096464845,0.109171598,0.173020591,0.052557463,-0.196879249,1.175515272,0.009897294,-1.910420615,1.050729643,9.604651768
0.0976,0.115103839,0.163830188,0.096530776,0.104430036,0.156943188,0.141252245,-0.02221143,-2.918391727,0.006074852,-1.444943299,1.003619291,9.604773077
0.0984,0.115924512,0.164261491,0.096596096,0.109028003,0.149706004,0.095695482,1.860517606,-1.445589321,0.021759138,-1.438844731,0.943521626,9.711046558
0.0992,0.116742256,0.164690458,0.096660806,0.119281738,0.145408632,0.106914297,-0.463082854,1.909160455,0.017420677,-1.517908032,1.103449401,9.737478232
0.1,0.11755705,0.165117086,0.096724906,0.105327877,0.164940441,0.052054358,1.684784075,0.664402208,0.015164043,-1.565211398,0.958391152,9.660879779
0.1008,0.118368875,0.165541366,0.096788394,0.132705991,0.150682777,0.060449511,1.240826662,-0.402421022,0.023657323,-1.485852314,1.359524015,9.616364737
0.1016,0.119177708,0.165963294,0.096851272,0.115232304,0.161644466,0.147487374,-2.606950508,1.930696731,0.011714856,-1.621857702,0.986357916,9.626169874
0.1024,0.11998353,0.166382863,0.096913537,0.111812335,0.166100997,0.115255044,0.776822475,0.870870752,0.01732727,-1.584540987,1.255710893,9.874500905
0.1032,0.120786321,0.166800068,0.096975191,0.121425802,0.168600664,0.135245935,-0.053283816,-0.294781835,0.017397125,-1.585367816,1.105946162,9.486242645
0.104,0.12158606,0.167214902,0.097036232,0.111425535,0.163757693,0.054010703,0.316645425,0.825679987,0.013459147,-1.467745184,0.871557953,9.475657591
0.1048,0.122382726,0.167627359,0.097096659,0.123911497,0.175219864,0.099927878,1.062371322,-0.316528523,0.014277944,-1.790459913,1.362625616,9.670036353
0.1056,0.123176301,0.168037434,0.097156474,0.119963071,0.16126324,0.134793819,-0.168008428,-1.659585613,0.022754676,-1.595814842,1.224000268,9.626754005
0.1064,0.123966764,0.168445121,0.097215675,0.122581557,0.161984173,0.117959798,0.275802125,1.940126906,0.015065527,-1.6696616,1.170655919,9.698169041
0.1072,0.124754094,0.168850414,0.097274262,0.122200411,0.176764892,0.085686797,1.224333355,0.959263415,0.014907562,-1.874325706,1.188461902,9.44928505
0.108,0.125538272,0.169253307,0.097332234,0.132381091,0.169677717,0.082815688,1.146904614,0.781939337,0.014655086,-1.725171846,1.335270659,9.592158699
0.1088,0.126319279,0.169653795,0.097389592,0.131423845,0.182995168,0.139266833,0.133899813,0.164675235,0.02537871,-1.914680636,1.112944953,9.40863814
0.1096,0.127097094,0.170051872,0.097446334,0.133458241,0.171012548,0.103750592,1.783755732,-1.332744929,0.014630157,-1.528589507,1.405671897,9.543543143
0.1104,0.127871697,0.170447531,0.097502461,0.14561258,0.172311312,0.080729168,0.12814233,-1.247206055,0.016291288,-1.684624524,1.442677022,9.448424921
0.1112,0.12864307,0.170840769,0.097557972,0.134508284,0.161015584,0.10572693,-2.064147633,-0.641196321,0.017221727,-1.694112044,1.40999541,9.533502259
0.112,0.129411192,0.171231578,0.097612867,0.129008886,0.167152498,0.128786588,-3.310056032,1.736209698,0.006549068,-1.71972535,1.403317907,9.500826473
0.1128,0.130176045,0.171619954,0.097667145,0.107946061,0.17489599,0.111654346,-0.429303335,2.40572789,0.003304698,-1.739472131,1.119381274,9.258445051
0.1136,0.130937609,0.17200589,0.097720807,0.12559703,0.186397197,0.132463734,3.969504697,-1.273711962,0.008270909,-1.857269686,1.247013135,9.498178351
0.1144,0.131695864,0.172389382,0.097773851,0.139641843,0.164756312,0.141511088,1.008497609,-2.051109455,0.014904694,-1.502420469,1.32303123,9.606561471
0.1152,0.132450792,0.172770424,0.097826277,0.133712159,0.170001214,0.07435125,2.471408802,0.825098811,0.018029885,-1.766599593,1.351709624,9.570449491
0.116,0.133202373,0.173149011,0.097878086,0.159478,0.171359088,0.069600207,-1.070243501,0.274666946,0.013630028,-1.772209799,1.542148095,9.594292755
0.1168,0.133950589,0.173525136,0.097929276,0.125154524,0.172166988,0.123599052,-2.185975416,-1.118680545,0.013108559,-1.637906358,1.236973877,9.583435794
0.1176,0.134695421,0.173898796,0.097979848,0.141909432,0.162421698,0.157744884,2.099166539,-3.177976307,0.004148378,-1.526856732,1.339281986,9.60883625
0.1184,0.135436849,0.174269984,0.0980298,0.141951087,0.146759736,0.167020713,0.218300898,4.115310055,0.014198219,-1.589905543,1.383860256,9.537125955
0.1192,0.136174855,0.174638695,0.098079134,0.143689634,0.195306301,0.075608532,0.551398169,4.098217305,0.016664234,-1.732053496,1.413720104,9.54607225
0.12,0.136909421,0.175004924,0.098127848,0.146341168,0.179569485,0.078298741,-1.159935492,-3.412602757,0.015044482,-1.733033642,1.576096191,9.438281133
0.1208,0.137640528,0.175368666,0.098175942,0.134443353,0.168015733,0.136189604,-3.229004642,0.126612662,0.016431976,-1.704869533,1.508842802,9.536207534
0.1216,0.138368157,0.175729916,0.098223416,0.120560102,0.180620051,0.116635777,1.093432694,0.955145383,0.021792101,-1.834315432,1.053320359,9.43142714
0.1224,0.139092289,0.176088668,0.09827027,0.143183004,0.175774357,0.139380035,1.982889559,-1.603098071,0.005867302,-1.640233718,1.300950729,9.649645869
0.1232,0.139812908,0.176444918,0.098316503,0.136322776,0.167733863,0.082972937,0.570860999,1.167191097,0.015283923,-1.717692187,1.445543769,9.596317085
0.124,0.140529994,0.17679866,0.098362115,0.147783626,0.185067629,0.159886963,0.269805993,2.434492341,0.016987772,-1.684057411,1.30228312,9.630355112
0.1248,0.141243529,0.177149889,0.098407106,0.138524348,0.187198145,0.09569313,-1.830254108,0.312880353,0.010391443,-1.974170109,1.471562465,9.560442223
0.1256,0.141953496,0.1774986,0.098451475,0.133168209,0.187576678,0.15419497,0.893104878,-4.691863894,0.010784783,-1.967157519,1.282887896,9.482156045
0.1264,0.142659876,0.177844789,0.098495222,0.145695382,0.149645582,0.138125311,0.772758942,-2.171524565,0.014356367,-1.41479317,1.442837402,9.571022718
0.1272,0.143362652,0.178188451,0.098538347,0.139325149,0.170248574,0.171987629,-0.736764285,3.232259762,0.010182061,-1.727330758,1.320711414,9.716856654
0.128,0.144061805,0.178529579,0.098580849,0.139789834,0.175459238,0.150107313,0.68872546,1.050663301,0.000826476,-1.633242124,1.321918326,9.424506076
0.1288,0.144757318,0.178868171,0.098622729,0.144840016,0.178666685,0.079593913,2.339256632,1.145426294,0.009069997,-1.741819094,1.394816112,9.552879296
0.1296,0.145449174,0.17920422,0.098663986,0.158480938,0.184640173,0.103840197,-1.138343618,1.626838896,0.014186864,-1.763146697,1.500964453,9.512236872
0.1304,0.146137356,0.179537723,0.09870462,0.135705579,0.191688746,0.083513907,-1.815747042,-0.935586979,0.005663006,-1.680309335,1.214975797,9.682269093
0.1312,0.146821844,0.179868674,0.09874463,0.143954338,0.177139167,0.103511128,-0.475271139,-2.246185555,0.006130079,-1.634760854,1.399044992,9.713237017
0.132,0.147502623,0.180197068,0.098784017,0.131820118,0.173788289,0.087153355,1.439301919,-1.514201008,0.001680641,-1.673132299,1.381724706,9.565092217
0.1328,0.148179676,0.180522902,0.098822779,0.155498505,0.165078001,0.133162436,1.466151684,-0.422034828,0.01015563,-1.763409445,1.63642319,9.406629139
0.1336,0.148852984,0.18084617,0.098860918,0.143553677,0.170396517,0.120510488,-1.783343105,3.138013324,0.011560064,-1.684865057,1.275783442,9.506040296
0.1344,0.149522532,0.181166867,0.098898431,0.141282772,0.190219282,0.125349594,1.123502047,1.638668475,0.003129477,-1.668265998,1.224063924,9.650615235
0.1352,0.150188301,0.18148499,0.098935321,0.152482894,0.183502636,0.119578,0.772231805,-3.171974938,0.006753249,-1.581035115,1.578362697,9.266453687
0.136,0.150850276,0.181800534,0.098971585,0.147485396,0.164764281,0.146980492,1.082323942,0.956763708,0.010124979,-1.58356823,1.514074174,9.69080986
0.1368,0.15150844,0.182113494,0.099007224,0.161160745,0.191163521,0.148125448,0.046020662,3.536861645,0.010667839,-1.903839948,1.72614571,9.520727833
0.1376,0.152162775,0.182423865,0.099042238,0.147818168,0.193101971,0.170657443,0.892181572,-1.975576605,-0.003232656,-1.822918933,1.703832321,9.534483625
0.1384,0.152813266,0.182731644,0.099076626,0.168250681,0.175349784,0.129158942,1.452533546,-0.913255523,0.010057168,-1.764291088,1.716482601,9.544249539
0.1392,0.153459896,0.183036826,0.099110388,0.159462789,0.185868123,0.119002117,-0.87614796,1.946016714,0.007463357,-1.676714169,1.567340938,9.657885305
0.14,0.154102649,0.183339407,0.099143524,0.16120961,0.190851801,0.104519916,0.011547763,-1.195889362,0.005621909,-2.087010245,1.496334869,9.541851311
0.1408,0.154741508,0.183639382,0.099176034,0.159648744,0.176300897,0.120668698,-0.407795823,-2.108040889,-4.29E-05,-1.563595217,1.608017545,9.537178324
0.1416,0.155376457,0.183936747,0.099207918,0.157930244,0.174016982,0.18960091,-1.970344648,-0.763032295,0.003359664,-1.680697863,1.601345495,9.557032871
0.1424,0.15600748,0.184231498,0.099239175,0.143939728,0.170183889,0.153850031,1.148130751,2.876081357,0.007904244,-1.501655628,1.615104971,9.47423867
0.1432,0.156634562,0.18452363,0.099269805,0.167034246,0.197047262,0.181527527,1.444440212,1.714521472,0.009367573,-1.983779864,1.771072761,9.327011307
0.144,0.157257686,0.18481314,0.099299808,0.155483246,0.183856067,0.121247954,-0.984425107,-1.549660353,0.006627291,-1.75917921,1.29182899,9.365623276
0.1448,0.157876837,0.185100024,0.099329184,0.159124377,0.184648024,0.150467802,-1.730043693,0.291377485,0.007216707,-1.655815978,1.605917079,9.5580383
0.1456,0.158491999,0.185384276,0.099357932,0.141619701,0.186238868,0.115724071,0.991119439,-0.921845721,0.013877756,-1.876512138,1.387881927,9.513675668
0.1464,0.159103157,0.185665894,0.099386053,0.16710239,0.177257522,0.147524085,0.481092657,-0.710283731,0.01135124,-1.657204407,1.595423419,9.754624875
0.1472,0.159710295,0.185944874,0.099413546,0.145421061,0.180630401,0.151425956,1.196829,-0.329128283,0.012629877,-1.656637103,1.288471944,9.605532545
0.148,0.160313397,0.18622121,0.099440411,0.17667445,0.174655515,0.161027384,0.919494492,2.246353751,0.011118689,-1.889491955,1.691468427,9.652843889
0.1488,0.160912449,0.1864949,0.099466648,0.152798154,0.198585614,0.191390877,-2.937731166,2.442629883,0.017669941,-1.911552643,1.249577813,9.522423597
0.1496,0.161507435,0.18676594,0.099492256,0.153170794,0.194180377,0.14312773,1.5271506,0.612910762,-6.72E-05,-1.86923455,1.569611011,9.723400907
0.1504,0.162098341,0.187034325,0.099517237,0.165063679,0.203505993,0.115706086,-0.88740053,-0.73806272,0.003311506,-2.014592514,1.72665633,9.433324234
0.1512,0.162685151,0.187300052,0.099541588,0.146018498,0.188250992,0.191523287,2.193595526,-2.764180038,0.001865198,-1.793487707,1.360503717,9.605526855
0.152,0.16326785,0.187563117,0.099565311,0.182602815,0.181424369,0.180977596,3.770852261,-1.773561007,0.00928717,-1.825721467,1.578576423,9.477426078
0.1528,0.163846425,0.187823516,0.099588405,0.176251545,0.174119031,0.123105301,-0.893635897,0.236547502,0.00947583,-1.730842787,1.589926717,9.466417578
0.1536,0.164420859,0.188081246,0.09961087,0.175539849,0.183322971,0.182134941,0.531708414,0.400483405,0.006014334,-1.97270787,1.618322151,9.434125984
0.1544,0.16499114,0.188336303,0.099632706,0.180533273,0.177304867,0.158188318,-3.918454961,0.296822301,0.002618251,-2.025226228,1.903021124,9.42485658
0.1552,0.165557251,0.188588683,0.099653912,0.144179059,0.185670553,0.182400929,-4.229290423,3.367704922,0.003472205,-1.837345703,1.502026733,9.54027457
0.156,0.16611918,0.188838383,0.099674489,0.146714917,0.204227197,0.141582593,1.173856524,-2.326824476,0.008032791,-2.042282145,1.577115887,9.489812532
0.1568,0.166676911,0.189085399,0.099694436,0.153564743,0.167057323,0.154352783,2.262976131,-0.020273896,0.012808594,-1.618769976,1.429877337,9.580615811
0.1576,0.167230432,0.189329728,0.099713754,0.164764683,0.203991114,0.140881325,2.194787454,2.456313104,0.002168157,-2.014816525,1.505685815,9.437844146
0.1584,0.167779726,0.189571366,0.099732441,0.171126534,0.186700536,0.192783457,-1.75051465,-1.252616496,-0.000688352,-1.807566162,1.736994884,9.639915123
0.1592,0.168324782,0.18981031,0.099750499,0.15077601,0.194006894,0.141752045,-0.388251774,1.408531403,0.004279894,-1.826284223,1.440738058,9.587125795
0.16,0.168865585,0.190046556,0.099767927,0.168049943,0.197952365,0.197440396,3.423740604,1.02848377,-0.005513701,-1.690871837,1.604620014,9.525664848
0.1608,0.169402121,0.190280101,0.099784724,0.178139311,0.202270899,0.185954118,1.153270744,-1.280961482,0.008601395,-1.876283325,1.666041823,9.53515623
0.1616,0.169934378,0.190510942,0.099800891,0.177266658,0.187674668,0.145429952,-2.222763749,-2.867365666,-0.004492497,-1.820846749,1.664249869,9.357622567
0.1624,0.17046234,0.190739075,0.099816428,0.16039456,0.179251562,0.209179617,-1.813175232,0.718472925,0.010142991,-1.819743504,1.614848844,9.498448919
0.1632,0.170985996,0.190964498,0.099831334,0.162750252,0.193395405,0.211901653,1.542153416,0.836810348,0.009952683,-1.987795331,1.622781497,9.432980152
0.164,0.171505331,0.191187206,0.09984561,0.172684582,0.185961708,0.198865024,2.051176419,1.115197667,0.00082131,-1.856038484,1.700776163,9.482631045
0.1648,0.172020333,0.191407197,0.099859255,0.179123783,0.202268812,0.166590132,0.873356633,-0.757166989,0.00325214,-2.085599001,1.66106915,9.53416988
0.1656,0.172530989,0.191624468,0.099872269,0.179748142,0.179835775,0.152129245,1.954583748,-1.604469582,0.013489997,-1.904561369,1.995196054,9.477269942
0.1664,0.173037286,0.191839016,0.099884653,0.194757511,0.189395441,0.149181982,-0.337060314,-0.59526635,0.002325565,-1.726392046,1.881700354,9.47827587
0.1672,0.173539211,0.192050837,0.099896405,0.177135621,0.175080719,0.125476749,-2.380446051,1.058649646,0.004404744,-1.72130645,1.861344375,9.538720673
0.168,0.174036751,0.192259929,0.099907527,0.175699485,0.197833124,0.17894518,-2.441783731,2.661566521,0.007298633,-1.849925261,1.799967886,9.42486198
0.1688,0.174529894,0.192466288,0.099918017,0.157606337,0.196264512,0.177707977,-2.089833424,-2.893100668,0.003315375,-2.022270835,1.518373454,9.536769261
0.1696,0.175018627,0.192669911,0.099927876,0.15889837,0.174694886,0.213936409,1.906955512,-0.819516462,0.0087478,-1.759181705,1.500458134,9.361107282
0.1704,0.175502938,0.192870797,0.099937104,0.172765164,0.18975724,0.169941565,3.528501427,2.924899326,0.001809098,-1.896474747,1.587611146,9.513417559
0.1712,0.175982815,0.193068941,0.099945701,0.187220299,0.198155975,0.208386454,0.269017368,-0.472168409,-0.005124624,-1.870058699,1.836220732,9.50205968
0.172,0.176458245,0.193264342,0.099953667,0.174926401,0.185914516,0.143680438,-1.981868567,-0.158657636,-0.002187806,-1.800666497,1.657062727,9.602190824
0.1728,0.176929217,0.193456996,0.099961001,0.171308189,0.196843252,0.167637859,1.553135383,-0.581142591,-0.001857882,-1.981458647,1.687513156,9.600746669
0.1736,0.177395719,0.1936469,0.099967703,0.187313768,0.181231282,0.153262695,-2.541439409,-1.16979546,-0.004430479,-1.778863664,1.64726176,9.466297528
0.1744,0.177857739,0.193834052,0.099973775,0.151020116,0.187508817,0.170108507,-1.85990298,2.038717575,0.001118091,-1.62813082,1.694723581,9.418629647
0.1752,0.178315264,0.194018449,0.099979215,0.172474575,0.197511961,0.154317274,2.181812571,2.933629027,0.000915738,-2.03373024,1.502851962,9.628138376
0.176,0.178768285,0.194200089,0.099984023,0.168442418,0.210947333,0.151913229,-0.618373374,-3.802706051,0.001395596,-2.139799333,1.559488621,9.615096577
0.1768,0.179216789,0.194378969,0.0999882,0.167499847,0.167086552,0.158394901,2.127867351,-1.930542857,-0.003547323,-1.588375859,1.697171804,9.404540048
0.1776,0.179660764,0.194555086,0.099991745,0.185480094,0.195499435,0.181766894,-0.993871475,5.024717736,-0.000826804,-2.019323282,2.028588919,9.290689211
0.1784,0.1801002,0.194728439,0.099994658,0.159554822,0.207273069,0.194958882,-0.76209152,1.00114172,-0.003764756,-2.030653639,1.621146332,9.554343514
0.1792,0.180535086,0.194899023,0.09999694,0.17941298,0.203543718,0.183616902,3.974203378,-1.275101158,0.00556863,-2.0484881,1.750171818,9.465638285
0.18,0.18096541,0.195066838,0.09999859,0.191353583,0.197102974,0.132385689,0.196889524,-1.635497054,0.005537536,-1.954502116,1.899120912,9.431331296
0.1808,0.181391163,0.195231881,0.099999609,0.181012931,0.190423549,0.209139303,-2.296719844,-1.766358337,-0.00185794,-1.86465808,1.828757922,9.27730148
0.1816,0.181812332,0.195394149,0.099999996,0.172911174,0.182949603,0.196946057,1.119506687,0.740008146,0.00039021,-1.744000537,1.552498194,9.549612575
0.1824,0.182228907,0.195553639,0.099999751,0.189975218,0.196356291,0.18265755,0.6555168,-0.548492016,-0.005523426,-1.865790855,1.884512516,9.5252764
0.1832,0.182640878,0.195710351,0.099998875,0.178173322,0.178578456,0.18122667,1.100333664,0.071814262,0.006875471,-1.761766534,1.659683352,9.546540045
0.184,0.183048235,0.195864281,0.099997367,0.198776976,0.196850552,0.196308321,1.696581066,3.528523364,-0.007947235,-1.884128712,2.013219579,9.526634435
0.1848,0.183450966,0.196015427,0.099995227,0.1918012,0.206840212,0.222445313,-1.539682141,-0.671444781,0.004812738,-2.004479779,1.971352404,9.499237382
0.1856,0.183849063,0.196163788,0.099992456,0.186477231,0.191518276,0.228265939,-2.263714907,-1.582620957,-0.001199824,-1.987206373,1.718274826,9.389765493
0.1864,0.184242514,0.196309361,0.099989053,0.173671036,0.194180592,0.216341399,-0.731498306,-1.239166905,-0.014279258,-1.9031549,1.786649784,9.273088842
0.1872,0.18463131,0.196452143,0.099985019,0.18069348,0.181531507,0.169431706,-0.521171765,2.169563607,0.0064151,-1.849838037,1.742715456,9.534304552
0.188,0.185015441,0.196592134,0.099980353,0.169471611,0.211553936,0.166129329,-0.719151864,2.23158355,0.005385426,-2.044514582,1.629659337,9.420872906
0.1888,0.185394898,0.196729331,0.099975055,0.174890654,0.199373648,0.164236398,2.813983717,-2.359934555,-0.004568648,-1.871808652,1.805346386,9.619002858
0.1896,0.18576967,0.196863731,0.099969126,0.191934071,0.192685091,0.219767559,2.594308608,-1.328952772,-0.007592378,-1.856377221,1.671014176,9.406855327
0.1904,0.186139749,0.196995334,0.099962566,0.195640271,0.188761843,0.160626227,-1.380371729,1.368928182,0.004428304,-1.919032443,1.900438439,9.300409417
0.1912,0.186505125,0.197124137,0.099955374,0.180926746,0.203660515,0.196079353,-2.723829443,-0.464611928,-0.004328671,-2.006106115,1.760073095,9.578486307
0.192,0.186865788,0.197250139,0.099947551,0.17391522,0.185040875,0.154331053,-0.997111765,-0.306537898,-0.000798267,-2.01543012,1.708304237,9.487105729
0.1928,0.187221731,0.197373337,0.099939096,0.172953338,0.201205693,0.212149115,-1.163420652,0.497549742,0.014893104,-1.896829393,1.615847693,9.576198024
0.1936,0.187572942,0.19749373,0.09993001,0.164608077,0.189042042,0.219683648,2.57617045,0.702514077,-0.001223676,-1.793804934,1.480373571,9.448391116
0.1944,0.187919415,0.197611316,0.099920293,0.193490564,0.206812483,0.153250518,2.08542425,1.3136655,-0.000882986,-2.116890757,2.008462065,9.601528861
0.1952,0.188261139,0.197726094,0.099909945,0.181280571,0.199558115,0.225983081,-0.809534134,0.437518846,-0.006896003,-1.996886844,1.853448661,9.491898903
0.196,0.188598107,0.197838062,0.099898966,0.186971727,0.210350482,0.159593742,1.886338134,0.397336671,0.006388183,-2.107661176,1.863361561,9.270690873
0.1968,0.18893031,0.197947218,0.099887355,0.196331757,0.202816554,0.210307547,0.770356473,-0.6141782,-0.001829534,-1.99945167,1.845524301,9.347794761
0.1976,0.189257739,0.19805356,0.099875114,0.193155715,0.20548447,0.155173409,-0.574042854,-0.75704209,-0.007588208,-1.998805497,1.874154567,9.449868781
0.1984,0.189580386,0.198157088,0.099862242,0.191808665,0.196816448,0.184608499,-0.446514461,0.8265277,-0.004262509,-1.765929328,1.83933558,9.400077095
0.1992,0.189898244,0.1982578,0.099848739,0.189595568,0.212083612,0.188138243,2.422904157,-1.646215448,-0.007089976,-2.085790544,1.855488869,9.542096098
0.2,0.190211303,0.198355694,0.099834605,0.21119641,0.183686582,0.247314578,1.753783219,-1.193903999,-0.006472134,-1.98852174,1.959273636,9.428929024
0.2008,0.190519557,0.198450768,0.099819841,0.203657876,0.202564649,0.189906838,-5.116775434,2.356504484,-0.005574032,-1.82258273,2.04336012,9.563769869
0.2016,0.190822997,0.198543023,0.099804446,0.170239854,0.202569075,0.234033085,1.311063689,-1.580692612,-0.006235723,-1.858591684,1.652120026,9.413124122
0.2024,0.191121615,0.198632455,0.099788421,0.214203822,0.189969931,0.16267779,0.229647798,-0.296753017,0.000183914,-1.72265873,2.110841117,9.614692605
0.2032,0.191415405,0.198719065,0.099771766,0.172012902,0.200241525,0.230682238,-2.104709464,-1.482053718,0.000595209,-1.865429011,1.655643388,9.433904473
0.204,0.191704358,0.198802851,0.09975448,0.197434312,0.178089254,0.203971022,5.768566563,-0.146193842,-0.009926195,-1.783881032,1.80562879,9.395812328
0.2048,0.191988467,0.198883811,0.099736564,0.218094884,0.199105241,0.183466712,-2.638032212,2.172805337,-0.011047243,-1.88160677,2.091136711,9.435274781
0.2056,0.192267726,0.198961944,0.099718019,0.17630798,0.195439983,0.204781548,-1.233344432,0.131436208,-0.001221399,-1.967355096,1.544603349,9.457838829
0.2064,0.192542127,0.19903725,0.099698843,0.208340443,0.200120539,0.247425923,2.938462795,-0.875207604,-0.005794158,-1.915005584,2.122172034,9.366685758
0.2072,0.192811663,0.199109727,0.099679037,0.19979568,0.18842899,0.217317315,-2.279489995,-0.633556295,-0.006153009,-1.81963803,2.00009134,9.547743272
0.208,0.193076328,0.199179374,0.099658602,0.19005506,0.195063151,0.188344051,-0.248282083,-0.162330479,-0.006575775,-1.711653408,1.75569398,9.403545053
0.2088,0.193336114,0.19924619,0.099637538,0.197830383,0.187076271,0.200578644,0.836086011,1.038360591,-0.002903257,-1.970202041,1.88738837,9.507837529
0.2096,0.193591015,0.199310175,0.099615844,0.196721073,0.203352753,0.166223481,0.832498826,3.812121533,0.000331856,-1.928692118,1.933537046,9.333637541
0.2104,0.193841025,0.199371327,0.099593521,0.204483308,0.217619505,0.246432674,0.136739847,-2.231891436,-0.008703888,-2.174749603,1.964717793,9.304339727
0.2112,0.194086138,0.199429646,0.099570569,0.197818868,0.185398827,0.220285695,0.262967003,-1.34071862,-0.004095205,-1.830821897,1.826113854,9.569320001
0.212,0.194326347,0.19948513,0.099546987,0.206579144,0.20688599,0.254483753,-0.463761075,1.024566594,0.000707173,-1.976359647,1.977084947,9.336883904
0.2128,0.194561645,0.199537779,0.099522778,0.194159758,0.193571929,0.251368062,-2.701763694,-2.295074855,-0.008977709,-1.937331936,2.046589483,9.411319048
0.2136,0.194792028,0.199587592,0.099497939,0.184964651,0.188581163,0.182057514,-0.105888865,0.221766749,0.000450232,-1.894314586,1.765153966,9.479227055
0.2144,0.19501749,0.199634569,0.099472472,0.193297994,0.195301353,0.222508646,0.079354831,2.17834195,-0.007545777,-2.102525373,1.896212079,9.463103524
0.2152,0.195238024,0.199678708,0.099446376,0.185586385,0.205968079,0.194615415,0.747250071,0.650990042,-0.001024659,-1.717993264,1.902624557,9.411753077
0.216,0.195453625,0.199720009,0.099419653,0.199320168,0.200517235,0.180781689,1.820187443,-0.637529014,-0.015079952,-2.044441384,2.097753507,9.48573832
0.2168,0.195664287,0.199758472,0.099392301,0.200128277,0.200891759,0.26563465,-0.610028576,-0.021213898,-0.002345523,-2.056536615,2.07689976,9.527294931
0.2176,0.195870006,0.199794097,0.099364322,0.194438745,0.200375743,0.174768054,0.431119317,-1.484853657,-0.008720829,-1.900679429,2.066925141,9.641955548
0.2184,0.196070777,0.199826881,0.099335715,0.203517496,0.189038906,0.203678013,-0.197207561,-1.450518,-0.007190072,-1.854096434,2.118722116,9.40979485
0.2192,0.196266593,0.199856826,0.099306481,0.192856393,0.188793923,0.182013149,-2.320001427,1.445740294,-0.011541138,-1.896833926,2.07529674,9.289686843
0.22,0.19645745,0.19988393,0.099276619,0.184990119,0.200642111,0.17654028,-0.469037764,1.696401045,0.001426257,-2.018655449,1.771771543,9.381572523
0.2208,0.196643344,0.199908193,0.09924613,0.189159348,0.202384318,0.18090028,1.499771899,-1.619003416,-0.016856957,-1.897274943,1.684563957,9.268774274
0.2216,0.196824269,0.199929615,0.099215014,0.19703872,0.187654365,0.263055012,-0.194623146,-1.69824496,-0.004991901,-1.85651189,1.967767712,9.378112846
0.2224,0.197000221,0.199948196,0.099183272,0.18756478,0.188720126,0.256723283,0.872233562,2.125385843,-0.006135249,-1.782525824,1.581227446,9.585463509
0.2232,0.197171196,0.199963935,0.099150903,0.204027828,0.204694192,0.231821698,1.006056258,3.318552239,-0.011913465,-2.219962145,1.976710304,9.341363693
0.224,0.197337189,0.199976832,0.099117908,0.195599717,0.215313901,0.209345747,0.396864811,1.553460894,-0.013599,-2.056209339,1.829571243,9.326693108
0.2248,0.197498196,0.199986887,0.099084287,0.207255187,0.217132567,0.271031286,-1.3159769,-2.200634372,-0.009575264,-2.068124625,2.137671318,9.242527204
0.2256,0.197654213,0.1999941,0.099050039,0.185007567,0.197706468,0.221358789,-1.269342042,-0.170991692,-0.015427787,-1.910095365,1.869723677,9.576150792
0.2264,0.197805236,0.19999847,0.099015167,0.197066743,0.215733931,0.231784596,1.215324352,0.677260994,-0.012884858,-2.154411195,1.742433487,9.582138092
0.2272,0.197951261,0.199999998,0.098979668,0.19471764,0.203108206,0.186356155,0.872618675,-0.124527507,-0.007697571,-1.906490493,1.756605036,9.499213439
0.228,0.198092285,0.199998684,0.098943545,0.204130893,0.214739331,0.19223107,0.111348697,-0.081991533,-0.013181962,-2.242771165,1.861032651,9.438302745
0.2288,0.198228304,0.199994527,0.098906797,0.195679248,0.20246297,0.19219089,-0.217831666,-0.294987946,-0.007847507,-1.884931316,2.065816216,9.375136907
0.2296,0.198359314,0.199987527,0.098869423,0.202445414,0.212290673,0.27241179,2.565790499,-2.211168118,-0.013817914,-2.005448215,1.858041497,9.49799107
0.2304,0.198485313,0.199977686,0.098831426,0.216202815,0.184749304,0.24828963,0.31290187,-2.434938222,-0.003917252,-1.75924457,2.072586637,9.396032162
0.2312,0.198606296,0.199965002,0.098792804,0.204979582,0.192860644,0.181893212,-2.659198836,3.070171452,-0.005336437,-1.740352237,1.892029193,9.317513182
0.232,0.198722262,0.199949476,0.098753558,0.194992651,0.209340598,0.278167083,-0.175401012,0.016275386,-0.011188377,-2.151724762,1.929236939,9.497493397
0.2328,0.198833207,0.199931109,0.098713688,0.20355223,0.192936165,0.263088778,-1.49896511,-2.749726516,-0.005989553,-1.856175869,2.061778374,9.581375059
0.2336,0.198939128,0.1999099,0.098673195,0.182999647,0.187365744,0.195640473,1.075084106,-0.135472761,-0.004826034,-1.931168056,1.910281638,9.58381506
0.2344,0.199040022,0.19988585,0.098632078,0.212190727,0.19189358,0.274426954,2.942031598,2.954197278,-0.005394952,-1.936286619,2.042878681,9.47155318
0.2352,0.199135888,0.19985896,0.098590339,0.206539798,0.211005114,0.214031447,-1.836104438,2.789837995,-0.005477038,-2.110386467,1.953406859,9.429306504
0.236,0.199226722,0.199829228,0.098547976,0.197563876,0.214216942,0.262782967,-0.863642811,-0.556452955,-0.003778916,-2.011028839,1.883268343,9.446012388
0.2368,0.199312522,0.199796657,0.098504991,0.199613575,0.206503919,0.195645148,-0.837345991,-1.436274361,-0.006161484,-1.866669083,1.897607464,9.474735165
0.2376,0.199393287,0.199761246,0.098461384,0.19079992,0.20277053,0.272091118,-1.713880914,-0.851090431,-0.018879745,-2.191316925,1.667645666,9.42826101
0.2384,0.199469014,0.199722996,0.098417155,0.185823691,0.199651684,0.226537952,-0.150129482,0.013128278,-0.011865367,-1.738753817,1.721605135,9.507128991
0.2392,0.1995397,0.199681908,0.098372305,0.189605462,0.202909369,0.220557704,0.737118606,2.103936957,-0.012882025,-2.173435087,1.905538864,9.408599316
0.24,0.199605346,0.199637982,0.098326833,0.19167341,0.216406711,0.218411663,2.897225552,0.037405045,-0.014914455,-2.249166295,1.975527348,9.46277757
0.2408,0.199665948,0.199591218,0.09828074,0.212795566,0.203159859,0.288386082,-1.797741218,-2.221056917,-0.007395178,-1.980557757,2.145806161,9.433268643
0.2416,0.199721505,0.199541618,0.098234026,0.177274801,0.198666185,0.195094515,-0.775966737,-1.862913761,-0.009761742,-1.904947921,1.642129346,9.537965776
0.2424,0.199772016,0.199489182,0.098186692,0.206605024,0.188290499,0.247729107,3.973173598,0.978022112,-0.003938883,-1.862956806,2.001184792,9.418457941
0.2432,0.19981748,0.199433911,0.098138737,0.209087563,0.206425519,0.201429877,-1.525091335,-1.551802144,-0.009767776,-2.006465961,2.123114956,9.447665709
0.244,0.199857895,0.199375805,0.098090163,0.194357128,0.175831653,0.235181245,0.619957949,0.467550291,-0.012581461,-1.539011949,1.890374692,9.606729765
0.2448,0.19989326,0.199314866,0.098040968,0.214056302,0.210156083,0.275610037,1.343951992,2.485075399,-0.010680085,-2.00298129,2.084132501,9.429581358
0.2456,0.199923575,0.199251094,0.097991155,0.205144233,0.195684676,0.232520769,-1.379643316,-0.159321805,-0.017245298,-1.802570824,2.161573704,9.339877978
0.2464,0.199948838,0.19918449,0.097940723,0.20307774,0.208925126,0.274806016,-1.925387161,-0.494691543,-0.007168112,-1.870426381,1.959959651,9.571296329
0.2472,0.19996905,0.199115055,0.097889672,0.189757747,0.191700324,0.260782739,0.013966575,-2.893245253,-0.02806418,-1.8096501,2.008012112,9.387260331
0.248,0.199984209,0.199042791,0.097838003,0.203221623,0.185692443,0.204294872,-0.710160908,2.082770716,-0.012947604,-1.765466717,1.989289301,9.432893932
0.2488,0.199994315,0.198967697,0.097785715,0.184063278,0.208323893,0.254053487,-0.117835371,0.743986628,-0.013090168,-2.027275142,1.796015705,9.488220117
0.2496,0.199999368,0.198889776,0.09773281,0.202273994,0.191592452,0.236246928,2.121483614,-2.050253576,-0.020115182,-2.069489408,2.014862523,9.444287026
0.2504,0.199999368,0.198809028,0.097679288,0.201055936,0.191896214,0.24520206,-2.087554705,-0.602315366,0.000327799,-1.869775122,1.937819961,9.412143745
0.2512,0.199994315,0.198725455,0.097625149,0.185573681,0.186794257,0.207895482,-0.702819536,1.329101378,-0.014304099,-1.753758816,1.601123205,9.668754314
0.252,0.199984209,0.198639057,0.097570393,0.195482955,0.202531353,0.213541638,1.461345287,1.76839752,-0.012243808,-2.047458176,1.641953238,9.517608897
0.2528,0.19996905,0.198549837,0.097515021,0.197229912,0.200932345,0.275463542,2.480020706,-2.055132282,-0.010857791,-1.857363581,2.152181879,9.686207725
0.2536,0.199948838,0.198457794,0.097459032,0.215339252,0.186061388,0.22986095,0.539576047,-0.35334516,-0.005463833,-1.929794303,2.09781564,9.34238188
0.2544,0.199923575,0.198362931,0.097402429,0.201502602,0.198114078,0.291194544,-1.322293898,1.396692963,-0.017024379,-1.938557757,2.048695372,9.527211644
0.2552,0.19989326,0.198265249,0.09734521,0.204783894,0.197206267,0.263206361,0.437093154,1.575977862,-0.013304361,-1.896382743,2.082475022,9.406449428
0.256,0.199857895,0.198164749,0.097287376,0.205055259,0.210723696,0.303488934,1.794074376,-0.234984823,-0.013671365,-1.978249481,1.986044127,9.458263019
0.2568,0.19981748,0.198061432,0.097228927,0.219177249,0.195348098,0.298802243,-2.928373827,-1.852763891,-0.010167996,-2.041416553,2.109378461,9.435318893
0.2576,0.199772016,0.197955301,0.097169865,0.181588285,0.195951625,0.238351682,-2.335891546,-0.035817726,-0.015867728,-1.789198986,1.793149301,9.335800159
0.2584,0.199721505,0.197846356,0.097110188,0.200564479,0.195024195,0.247522243,0.799073855,2.149491415,-0.01826777,-1.693579303,2.023382771,9.645211991
0.2592,0.199665948,0.1977346,0.097049899,0.187922895,0.213170224,0.275563772,-1.017710394,-1.797701389,-0.019035037,-2.019816269,1.767362226,9.458201051
0.26,0.199605346,0.197620033,0.096988996,0.192436618,0.180642061,0.297268497,0.711813455,-2.659678947,-0.011165755,-1.731831812,1.895771008,9.651785401
0.2608,0.1995397,0.197502658,0.09692748,0.193635236,0.19188817,0.226030745,-0.670310346,2.977835613,-0.01948523,-1.901068131,1.823654707,9.540183103
0.2616,0.199469014,0.197382475,0.096865353,0.187072959,0.204431654,0.237141524,2.22181676,4.511627058,-0.007370661,-1.974623189,1.730657097,9.481648798
0.2624,0.199393287,0.197259488,0.096802613,0.211441027,0.227991093,0.229942303,1.560903939,-0.411779011,-0.01987804,-2.162787825,2.174233467,9.315149492
0.2632,0.199312522,0.197133697,0.096739262,0.19951461,0.201080877,0.287654195,-0.028022124,-4.163338714,-0.007872301,-1.827933995,2.09838324,9.579244765
0.264,0.199226722,0.197005104,0.0966753,0.211255457,0.194701173,0.274022663,1.768939274,-1.927808478,-0.017297525,-1.974396668,2.041171323,9.589215196
0.2648,0.199135888,0.196873711,0.096610727,0.213622624,0.18556397,0.248259552,0.075378246,0.263255666,-0.020060266,-1.898608554,2.051975694,9.361635492
0.2656,0.199040022,0.196739521,0.096545544,0.21185358,0.196839053,0.308401689,-2.003059457,1.909727167,-0.015175583,-1.866031459,2.092655078,9.46322763
0.2664,0.198939128,0.196602534,0.096479752,0.1975635,0.200812892,0.241967071,-3.809060088,0.262802868,-0.01975662,-1.981788614,1.922541207,9.537213635
0.2672,0.198833207,0.196462753,0.096413349,0.181373084,0.198946137,0.310644534,0.441298578,1.454162582,-0.017648336,-2.068052351,1.835385823,9.550899844
0.268,0.198722262,0.19632018,0.096346338,0.201097696,0.212415309,0.231050309,1.063290006,0.174153281,-0.020011324,-2.096616701,1.965828169,9.442395496
0.2688,0.198606296,0.196174817,0.096278719,0.189899615,0.200341286,0.286042188,0.986565942,-2.678106527,-0.015662834,-1.907767352,1.815341263,9.327068118
0.2696,0.198485313,0.196026665,0.096210491,0.208967394,0.190955205,0.316061801,2.852181731,-2.040157526,-0.017194835,-1.741598115,2.019118714,9.559308128
0.2704,0.198359314,0.195875728,0.096141655,0.212701998,0.184008716,0.311840027,-2.201245621,0.564640145,-0.010081145,-1.83033708,1.741540766,9.35174354
0.2712,0.198228304,0.195722007,0.096072212,0.191262006,0.195461308,0.301506799,-0.941794223,2.798551258,-0.014461367,-1.940010956,1.817850221,9.486583367
0.272,0.198092285,0.195565504,0.096002162,0.20520012,0.206386141,0.240724792,1.737992018,-0.906509289,-0.01560233,-2.183063647,1.991767103,9.588757869
0.2728,0.197951261,0.195406222,0.095931506,0.205109236,0.188161169,0.293823155,-0.625166585,-1.554619912,-0.022132852,-1.837051409,1.986640302,9.24173447
0.2736,0.197805236,0.195244163,0.095860244,0.200151486,0.193891291,0.267079905,0.392332203,0.798618835,-0.0186925,-2.056088694,1.956348202,9.578640587
0.2744,0.197654213,0.195079328,0.095788376,0.208270442,0.194582646,0.309862061,-0.065659325,-0.066011655,-0.009518185,-1.914066845,2.095800595,9.208011242
0.2752,0.197498196,0.194911722,0.095715904,0.199612581,0.193357146,0.279592912,-1.522394204,-0.408220262,-0.018677978,-1.914908008,1.792261516,9.358683127
0.276,0.197337189,0.194741345,0.095642826,0.196013178,0.191370818,0.263399805,-1.073423723,-0.082920651,-0.011048441,-1.939335067,1.937069561,9.354711931
0.2768,0.197171196,0.1945682,0.095569145,0.191066288,0.19269631,0.283959903,3.319219564,0.633898256,-0.024968161,-1.958174951,1.933340008,9.540707751
0.2776,0.197000221,0.194392291,0.09549486,0.222547443,0.196367464,0.268640415,1.783817065,0.166346571,-0.018984244,-1.806448173,2.131501758,9.451207483
0.2784,0.196824269,0.194213618,0.095419972,0.205358239,0.1939994,0.314637666,-5.207491159,1.125454671,-0.022395627,-1.946260135,1.889684441,9.385790298
0.2792,0.196643344,0.194032185,0.095344481,0.180875888,0.205405921,0.304311419,-1.342495386,0.360988199,-0.016188251,-1.892915461,1.732806333,9.116997445
0.28,0.19645745,0.193847995,0.095268387,0.194633523,0.19684893,0.288576785,3.782323844,-2.218612691,-0.017361757,-1.914095829,1.823535222,9.486623777
0.2808,0.196266593,0.19366105,0.095191692,0.211140595,0.187608493,0.294779002,-0.755921952,-0.394080929,-0.01962276,-1.82902592,2.263364214,9.365744026
0.2816,0.196070777,0.193471352,0.095114396,0.188556577,0.193651727,0.312850728,-2.004359173,-0.174144635,-0.02026375,-1.795805804,1.801289002,9.467974515
0.2824,0.195870006,0.193278905,0.095036499,0.195139916,0.186138552,0.254732141,-0.787353107,-0.394955264,-0.022985351,-1.859564185,1.87558741,9.29306147
0.2832,0.195664287,0.19308371,0.094958002,0.18231406,0.190530886,0.306110082,-1.571604373,1.087353042,-0.024587076,-1.813145234,1.905596903,9.579635194
0.284,0.195453625,0.192885772,0.094878904,0.182608368,0.194863221,0.296524725,1.176616375,1.433650758,-0.024677903,-1.859451641,1.792643084,9.476436518
0.2848,0.195238024,0.192685092,0.094799208,0.191759693,0.201991221,0.296721085,-0.391644204,-1.879381097,-0.014564394,-1.980471489,1.929500534,9.507441211
0.2856,0.19501749,0.192481674,0.094718913,0.179468411,0.179825724,0.235502239,-0.403657602,-1.928037859,-0.026595194,-1.719698178,1.646969102,9.630951317
0.2864,0.194792028,0.19227552,0.094638019,0.188532683,0.186594874,0.25654046,1.649380739,3.115370524,-0.014440444,-1.970454708,1.853626657,9.4605618
0.2872,0.194561645,0.192066633,0.094556528,0.192625238,0.204804178,0.242364787,-1.000668353,1.594278766,-0.026039188,-1.957588599,1.988208405,9.324335499
0.288,0.194326347,0.191855017,0.094474439,0.18061053,0.199360514,0.264975069,1.263976697,-2.415723165,-0.017971402,-2.018807181,1.842042142,9.48544671
0.2888,0.194086138,0.191640674,0.094391754,0.202729062,0.185462226,0.295468334,-0.517180809,-0.882803333,-0.017650511,-1.624718215,1.933931907,9.488596658
0.2896,0.193841025,0.191423608,0.094308472,0.176507149,0.19232072,0.304111304,-1.783017625,-3.77049508,-0.022490771,-1.849854241,1.719106123,9.428773046
0.2904,0.193591015,0.191203821,0.094224595,0.188373029,0.155298448,0.294733928,2.07346371,0.168242913,-0.017918335,-1.39167091,1.605517257,9.650742262
0.2912,0.193336114,0.190981316,0.094140122,0.19309047,0.193645606,0.247431778,2.797671639,4.511744085,-0.024885769,-1.906288402,1.956646941,9.403957324
0.292,0.193076328,0.190756098,0.094055055,0.210652347,0.191403734,0.331063881,-2.952244335,-0.420653969,-0.016457168,-1.798186045,1.959267126,9.559645351
0.2928,0.192811663,0.190528168,0.093969394,0.169515145,0.190298356,0.331772712,-1.827568568,-0.579706421,-0.023496186,-1.935160677,1.702535582,9.47986905
0.2936,0.192542127,0.19029753,0.093883139,0.196010696,0.186795085,0.290084903,2.520472305,0.626795035,-0.021264835,-1.699937304,1.892267304,9.377407227
0.2944,0.192267726,0.190064188,0.093796291,0.189683904,0.195323905,0.332373224,-1.004693036,-0.617009849,-0.020286097,-1.847158465,1.734936138,9.215087609
0.2952,0.191988467,0.189828144,0.093708851,0.187957666,0.181834633,0.253390297,0.802245513,-0.800281429,-0.020218406,-1.823044798,1.898366298,9.416787751
0.296,0.191704358,0.189589403,0.093620819,0.19603055,0.188908227,0.29759146,-1.327704016,3.753375984,-0.026736026,-1.791631052,1.867146904,9.318744885
0.2968,0.191415405,0.189347967,0.093532195,0.177276118,0.211903498,0.300647954,0.029799675,-0.011994432,-0.022667982,-2.011697971,1.805565154,9.453963332
0.2976,0.191121615,0.18910384,0.093442981,0.19629162,0.188878682,0.299936838,-0.448486649,-4.254664949,-0.025063108,-1.976304264,2.087695721,9.571042297
0.2984,0.190822997,0.188857026,0.093353176,0.173602709,0.177861393,0.337647949,-4.188443319,1.850971065,-0.029128172,-1.88216511,1.686259908,9.486037477
0.2992,0.190519557,0.188607527,0.093262782,0.162781124,0.203589532,0.328031393,4.0104256,1.508501026,-0.020959017,-2.138853539,1.59210029,9.481641986
0.3,0.190211303,0.188355348,0.093171798,0.205670497,0.189930801,0.301605457,1.096849889,-1.633884026,-0.023788961,-1.845886189,1.996900384,9.528721644
0.3008,0.189898244,0.188100492,0.093080226,0.171614952,0.190462056,0.326242269,-1.723958944,-0.560077746,-0.026672659,-1.892206256,1.738188157,9.393211435
0.3016,0.189580386,0.187842963,0.092988067,0.191893399,0.185390502,0.269650959,2.342892971,-1.172413566,-0.023230555,-1.825383924,1.791097968,9.508507217
0.3024,0.189257739,0.187582764,0.092895319,0.190396437,0.181041855,0.294494748,0.489001174,-1.683516005,-0.025669264,-1.686458512,1.793617119,9.487335376
0.3032,0.18893031,0.187319899,0.092801985,0.19578824,0.171907532,0.349087138,0.85188414,0.99098916,-0.029451967,-1.596581414,1.900714262,9.471977068
0.304,0.188598107,0.187054372,0.092708065,0.19722197,0.188880337,0.304970061,-1.918975253,2.124351355,-0.025010823,-1.767240467,1.953606257,9.566879406
0.3048,0.188261139,0.186786186,0.092613559,0.180422283,0.188954878,0.349697221,-1.565142496,0.343281605,-0.01944425,-1.840880411,1.82837849,9.3790163
0.3056,0.187919415,0.186515346,0.092518469,0.184748301,0.191660627,0.345324883,-0.330426473,-0.533555923,-0.027934841,-1.698708906,1.920192104,9.375039547
0.3064,0.187572942,0.186241855,0.092422793,0.177765707,0.184660663,0.337369811,0.260507683,-0.944899548,-0.019017642,-1.693354529,1.76814128,9.482500112
0.3072,0.187221731,0.185965717,0.092326534,0.186824708,0.184055831,0.278521953,2.218995476,2.15100883,-0.021079705,-1.865884768,1.689453562,9.664869382
0.308,0.186865788,0.185686936,0.092229692,0.195617559,0.201884025,0.342107857,2.674976355,-3.072956203,-0.019931269,-2.172608569,1.891588579,9.406310162
0.3088,0.186505125,0.185405516,0.092132268,0.20824278,0.159498023,0.291200577,-1.146344822,-2.047646983,-0.030793421,-1.591318422,2.017107706,9.469069556
0.3096,0.186139749,0.185121461,0.092034261,0.186433906,0.185505469,0.35135924,-0.716663918,4.317139334,-0.018908747,-1.846056237,1.877568031,9.296984918
0.3104,0.18576967,0.184834775,0.091935673,0.202526768,0.194061464,0.268905564,-0.334352344,2.061058513,-0.030722554,-2.000938607,1.938571277,9.249612737
0.3112,0.185394898,0.184545462,0.091836504,0.18383001,0.201945687,0.309288536,-1.326395313,-1.681126071,-0.023273371,-2.086728302,1.758141976,9.383133473
0.312,0.185015441,0.184253526,0.091736755,0.191924421,0.18065652,0.267638959,-1.07560243,-4.292418569,-0.02222055,-1.808143428,1.885806685,9.58314679
0.3128,0.18463131,0.183958972,0.091636427,0.175298705,0.167674993,0.299402116,-0.547911284,0.956102677,-0.026710444,-1.673281835,1.660714033,9.573189302
0.3136,0.184242514,0.183661803,0.09153552,0.18747922,0.188262338,0.325420099,2.207817546,2.539693434,-0.02783579,-1.6965063,1.835861666,9.454362657
0.3144,0.183849063,0.183362024,0.091434035,0.19293123,0.188015591,0.274123208,-0.755483838,1.268352677,-0.032747901,-1.781581068,1.95651115,9.357686167
0.3152,0.183450966,0.183059639,0.091331972,0.181376658,0.198398604,0.26657321,-1.608974796,0.37606277,-0.026511157,-1.820891717,1.659761481,9.419961964
0.316,0.183048235,0.182754652,0.091229332,0.180078007,0.19100918,0.314804921,-1.422469983,-1.278213498,-0.020657143,-1.818877886,1.665802863,9.561182325
0.3168,0.182640878,0.182447068,0.091126116,0.17001969,0.188163884,0.332674979,1.813507333,-2.738491846,-0.027583562,-1.864641722,1.616275864,9.438156481
0.3176,0.182228907,0.182136891,0.091022324,0.194588572,0.169035036,0.337837235,0.759751558,-0.852830676,-0.022599889,-1.703396364,2.019395556,9.499711113
0.3184,0.181812332,0.181824126,0.090917958,0.17606908,0.181364057,0.347682746,-1.721671265,4.141407042,-0.024137644,-1.809815703,1.681095964,9.52671302
0.3192,0.181391163,0.181508776,0.090813017,0.1808453,0.202162617,0.36286244,-1.191988372,-1.948153972,-0.017441103,-1.862527321,1.688765212,9.568097546
0.32,0.18096541,0.181190846,0.090707503,0.166515136,0.165756757,0.308703956,2.448215751,-2.56570216,-0.022524267,-1.701769131,1.489390984,9.520618261
0.3208,0.180535086,0.180870342,0.090601415,0.200338484,0.181682066,0.346238581,1.725513698,2.161341209,-0.028512091,-1.762013883,1.932481118,9.291343765
0.3216,0.1801002,0.180547267,0.090494755,0.180312672,0.183112573,0.277175701,-0.795817979,-1.525440557,-0.022237537,-1.725695667,1.743295286,9.678591839
0.3224,0.179660764,0.180221626,0.090387524,0.193956043,0.169493166,0.359726842,0.295424866,-0.367007868,-0.022936768,-1.644988104,1.899565544,9.461280507
0.3232,0.179216789,0.179893423,0.090279722,0.182674653,0.180195174,0.326721783,-2.025189661,2.759776088,-0.027209663,-1.771958064,1.741762311,9.525665739
0.324,0.178768285,0.179562664,0.090171349,0.177730632,0.191663263,0.314911615,0.124889488,2.95552824,-0.031449496,-1.918729501,1.693841622,9.355691049
0.3248,0.178315264,0.179229353,0.090062407,0.183658066,0.20385484,0.323306034,-1.183611918,-0.073713178,-0.032493243,-1.957006754,1.65120578,9.351196273
0.3256,0.177857739,0.178893495,0.089952896,0.168260829,0.191112008,0.306215774,-2.025947373,-4.429859529,-0.03373926,-1.859369595,1.667436592,9.632613214
0.3264,0.177395719,0.178555094,0.089842817,0.167440202,0.168468566,0.330695807,0.163835812,-1.755488538,-0.02692345,-1.549127238,1.64645284,9.597455439
0.3272,0.176929217,0.178214156,0.089732171,0.169617036,0.177069428,0.302644743,1.653492966,-0.026250484,-0.031768432,-1.729384877,1.789985132,9.543596454
0.328,0.176458245,0.177870684,0.089620957,0.180694902,0.168280409,0.284374179,0.736686213,0.576908854,-0.029348882,-1.586593528,1.863017298,9.580080743
0.3288,0.175982815,0.177524685,0.089509178,0.175481367,0.181657047,0.365614233,1.108568834,1.533788048,-0.027091744,-1.922328372,1.628614037,9.517571151
0.3296,0.175502938,0.177176163,0.089396833,0.189556619,0.180543907,0.365484557,-1.104742567,-1.777587343,-0.026566729,-1.686234831,1.677544659,9.467666048
0.3304,0.175018627,0.176825123,0.089283923,0.166668942,0.167388055,0.335516034,-0.110629465,-1.288002161,-0.026010415,-1.712324237,1.813470052,9.5510199
0.3312,0.174529894,0.176471569,0.089170449,0.188676095,0.170259684,0.352940973,-1.69113496,-0.99877343,-0.020122554,-1.412643909,1.831633869,9.577060557
0.332,0.174036751,0.176115508,0.089056413,0.153090085,0.15937209,0.289656311,-1.407220191,-1.089402486,-0.029940688,-1.617056517,1.512120181,9.514144594
0.3328,0.173539211,0.175756943,0.088941813,0.177388116,0.161643767,0.283413222,3.204583639,3.934117475,-0.02961163,-1.322542718,1.769014868,9.485993455
0.3336,0.173037286,0.175395881,0.088826652,0.17865278,0.190831639,0.352838699,-1.312593125,2.165836457,-0.035747955,-1.646473291,1.740842706,9.374799886
0.3344,0.172530989,0.175032326,0.08871093,0.166875742,0.178942763,0.285026516,0.89601248,-3.124229765,-0.029452358,-1.752847589,1.58951907,9.508476518
0.3352,0.172020333,0.174666283,0.088594647,0.185866102,0.16580396,0.313070297,-2.427121754,-0.973022244,-0.028093153,-1.567035822,1.823987466,9.276062641
0.336,0.171505331,0.174297758,0.088477805,0.147423316,0.171167143,0.347893383,-1.851831557,0.641246249,-0.030355773,-1.750050298,1.632711347,9.678475708
0.3368,0.170985996,0.173926756,0.088360404,0.171070711,0.170959533,0.373898553,4.063660016,-0.211999112,-0.032884779,-1.652416996,1.594130853,9.532594537
0.3376,0.17046234,0.173553282,0.088242445,0.179888254,0.169434858,0.342919968,-0.75489662,0.562949304,-0.033142592,-1.713369799,1.786502039,9.497602512
0.3384,0.169934378,0.173177341,0.088123928,0.164936019,0.175503743,0.328335527,1.278991939,-0.776848863,-0.029162466,-1.696061626,1.600078121,9.714743873
0.3392,0.169402121,0.172798939,0.088004855,0.190135897,0.16324631,0.384908557,-0.295666719,-1.828944745,-0.039387324,-1.508632511,1.801961563,9.53768126
0.34,0.168865585,0.172418082,0.087885226,0.162589507,0.16083266,0.337439473,-1.904224163,3.391049904,-0.032665095,-1.636043899,1.582198647,9.549366217
0.3408,0.168324782,0.172034773,0.087765042,0.174857386,0.19028978,0.335652868,0.443309406,1.847411754,-0.02629302,-1.910600097,1.689856369,9.533790379
0.3416,0.167779726,0.17164902,0.087644303,0.166133962,0.175679255,0.320441927,-1.107267874,-3.431434979,-0.034425649,-1.742232327,1.836172152,9.515894475
0.3424,0.167230432,0.171260827,0.087523011,0.166040514,0.162837808,0.293791184,3.613318489,-2.980391511,-0.038066287,-1.516808712,1.730115183,9.416299328
0.3432,0.166676911,0.170870201,0.087401166,0.194984608,0.151828375,0.390345369,0.537037632,0.317692265,-0.036340117,-1.37575533,2.083252102,9.545527931
0.344,0.16611918,0.170477146,0.087278769,0.17030651,0.165319244,0.324158102,-5.154154819,2.76707728,-0.027460329,-1.75406243,1.677035165,9.528457373
0.3448,0.165557251,0.170081668,0.08715582,0.153774497,0.173903426,0.301098702,-3.044590001,-1.028007086,-0.034216711,-1.565820526,1.709909986,9.821915216
0.3456,0.16499114,0.169683772,0.087032321,0.146010169,0.157123348,0.344663992,1.714331722,-0.575310592,-0.031735285,-1.504850115,1.454982333,9.736957072
0.3464,0.164420859,0.169283465,0.086908272,0.167577326,0.169275446,0.356825498,3.017341254,-0.134677153,-0.032450131,-1.875510652,1.52993427,9.428098524
0.3472,0.163846425,0.168880753,0.086783675,0.170177433,0.155984678,0.317715799,1.825144888,-0.253935395,-0.037576054,-1.437064293,1.66917765,9.508884897
0.348,0.16326785,0.16847564,0.086658529,0.182166066,0.167333888,0.302312311,-1.407190706,0.448250786,-0.031369092,-1.697110902,1.977915204,9.48636939
0.3488,0.162685151,0.168068133,0.086532836,0.158954207,0.159602132,0.359837241,-3.163641526,0.786823507,-0.0291395,-1.562214274,1.495404412,9.397545728
0.3496,0.162098341,0.167658237,0.086406596,0.156823947,0.173534715,0.316680386,1.421019346,1.015002128,-0.020899323,-1.675828707,1.427148477,9.750792262
0.3504,0.161507435,0.167245958,0.08627981,0.170306946,0.167774298,0.340409689,-0.464060357,1.541044971,-0.019728226,-1.443882526,1.785507524,9.564594345
0.3512,0.160912449,0.166831302,0.08615248,0.153074356,0.185858124,0.348983169,-2.35621253,1.10641311,-0.046783279,-1.947623872,1.370986266,9.544468963
0.352,0.160313397,0.166414275,0.086024605,0.151520764,0.176628763,0.338980379,3.038567128,-4.910244481,-0.037514977,-1.86216455,1.453785488,9.590566034
0.3528,0.159710295,0.165994884,0.085896187,0.177360431,0.146637274,0.326336963,-0.033805927,-1.648396693,-0.039500921,-1.445624693,1.663182614,9.588711334
0.3536,0.159103157,0.165573133,0.085767226,0.151311234,0.163497472,0.352085665,-2.281933628,0.206819026,-0.031576064,-1.532040083,1.431532126,9.499470318
0.3544,0.158491999,0.165149029,0.085637724,0.159027022,0.148265211,0.398751819,-0.558234249,0.677676048,-0.035379488,-1.422393198,1.627572819,9.597400827
0.3552,0.157876837,0.164722577,0.08550768,0.146840519,0.168902959,0.367734651,-0.738805505,2.665589829,-0.040608792,-1.675268515,1.334730957,9.40015502
0.356,0.157257686,0.164293785,0.085377097,0.153124917,0.169633194,0.316798297,0.72119591,-1.999789081,-0.025955056,-1.705534673,1.470975415,9.635141984
0.3568,0.156634562,0.163862658,0.085245974,0.152626635,0.152874831,0.357735425,-0.085237772,-1.34093714,-0.034532416,-1.579638715,1.371147467,9.727471497
0.3576,0.15600748,0.163429201,0.085114313,0.152462995,0.158921211,0.361801281,-0.443840747,2.395845447,-0.029509747,-1.592811712,1.505796473,9.634022886
0.3584,0.155376457,0.162993423,0.084982114,0.149023544,0.171991242,0.375637477,0.238331102,-1.862992619,-0.037827387,-1.575158823,1.482160896,9.718226876
0.3592,0.154741508,0.162555327,0.084849378,0.154381689,0.14406937,0.364190763,-1.063053565,-2.570116258,-0.030334822,-1.542567294,1.629986573,9.537991594
0.36,0.154102649,0.162114922,0.084716106,0.14058243,0.151456739,0.389159087,0.830767477,1.669375102,-0.034924908,-1.334352557,1.493804867,9.760841146
0.3608,0.153459896,0.161672212,0.0845823,0.161067981,0.157477621,0.365819383,1.656112139,0.01790016,-0.034736214,-1.360329608,1.700023756,9.496210927
0.3616,0.152813266,0.161227205,0.084447958,0.153820301,0.151647904,0.379745892,-0.811764292,2.91895596,-0.041715036,-1.516033065,1.366812459,9.573721708
0.3624,0.152162775,0.160779906,0.084313084,0.154550042,0.180878449,0.382462173,-0.770442744,1.278930552,-0.032860348,-1.725146926,1.498253247,9.426719339
0.3632,0.15150844,0.160330322,0.084177677,0.147610557,0.161845751,0.386398381,-1.239172242,-3.718204796,-0.025396582,-1.610519259,1.339396734,9.567728358
0.364,0.150850276,0.15987846,0.084041738,0.144633762,0.151098245,0.368101308,1.945329351,-1.171905704,-0.027511606,-1.428428751,1.447965586,9.622026965
0.3648,0.150188301,0.159424325,0.083905269,0.163148971,0.15251278,0.378882641,0.005817377,0.6953036,-0.033391502,-1.376435468,1.645308983,9.575004198
0.3656,0.149522532,0.158967925,0.083768269,0.144730205,0.15663633,0.375277013,-1.960923794,-0.463036728,-0.041773616,-1.625800605,1.220060805,9.671240221
0.3664,0.148852984,0.158509265,0.08363074,0.147427531,0.148808775,0.413094468,1.010718319,0.202458568,-0.030856328,-1.492151819,1.367761842,9.57212575
0.3672,0.148179676,0.158048352,0.083492683,0.152833675,0.158218753,0.329181721,1.342955174,0.331100593,-0.040166796,-1.455377326,1.532756403,9.659738651
0.368,0.147502623,0.157585194,0.083354099,0.158225733,0.151384318,0.398776227,-0.685137222,1.189944046,-0.038131827,-1.536982548,1.437609427,9.628072106
0.3688,0.146821844,0.157119795,0.083214988,0.147364293,0.167739149,0.400813156,-3.780467186,1.561340044,-0.033183843,-1.451699339,1.365652844,9.660074083
0.3696,0.146137356,0.156652164,0.083075352,0.127927166,0.163796446,0.416196045,0.257736726,-1.936109078,-0.035613575,-1.598869165,1.180026371,9.780634601
0.3704,0.145449174,0.156182306,0.082935191,0.149477833,0.152264221,0.333152513,2.129412392,-1.045101348,-0.033622875,-1.512333648,1.553877032,9.504759589
0.3712,0.144757318,0.155710229,0.082794505,0.144999128,0.155440497,0.398196691,-0.156127978,0.893578091,-0.033807079,-1.446989239,1.30560099,9.456381123
0.372,0.144061805,0.155235938,0.082653297,0.148168443,0.159406177,0.419504279,-0.288299929,-0.695457842,-0.0308391,-1.453881921,1.389011626,9.499230156
0.3728,0.143362652,0.154759442,0.082511567,0.142661924,0.149954961,0.352369824,-1.313936144,-2.714697407,-0.035702996,-1.575128555,1.341324279,9.674488209
0.3736,0.142659876,0.154280746,0.082369316,0.137678734,0.137716284,0.387591877,0.424605543,1.107486714,-0.037787121,-1.435271447,1.496855949,9.588240335
0.3744,0.141953496,0.153799857,0.082226544,0.146068219,0.158846988,0.409007809,2.400667861,2.145422307,-0.032865072,-1.416867349,1.373923844,9.704699625
0.3752,0.141243529,0.153316782,0.082083253,0.156893314,0.154892025,0.354546744,-0.74884496,-1.871690233,-0.034812458,-1.579694134,1.541710913,9.640626526
0.376,0.140529994,0.152831528,0.081939444,0.140111011,0.143796835,0.399327356,-4.228113051,0.76419322,-0.037046915,-1.541755867,1.429860768,9.757815227
0.3768,0.139812908,0.152344103,0.081795117,0.123048514,0.160953684,0.367043959,-0.580234214,0.411408691,-0.032564117,-1.605142661,1.169114559,9.610855074
0.3776,0.139092289,0.151854512,0.081650273,0.135458556,0.14709425,0.368412244,1.636427927,-3.168761282,-0.038284263,-1.392972391,1.376391919,9.592800122
0.3784,0.138368157,0.151362763,0.081504913,0.136119931,0.135612096,0.367657137,1.374580666,-0.263630443,-0.038488727,-1.358493087,1.520867404,9.517475762
0.3792,0.137640528,0.150868863,0.081359039,0.146403888,0.145015195,0.373357664,0.159114324,1.896187554,-0.035062845,-1.44763167,1.499201352,9.64001158
0.38,0.136909421,0.150372818,0.081212651,0.137421865,0.150801631,0.368053168,-2.27845765,0.340696266,-0.037578746,-1.518243554,1.473976735,9.520134667
0.3808,0.136174855,0.149874637,0.08106575,0.128296603,0.147701383,0.345204101,-1.782444501,-1.83621882,-0.033094368,-1.237712927,1.201764891,9.734318587
0.3816,0.135436849,0.149374325,0.080918336,0.123184048,0.136107308,0.419299525,1.322833649,1.296015432,-0.04127629,-1.177951499,1.270347378,9.597190936
0.3824,0.134695421,0.148871891,0.080770412,0.138871518,0.158098741,0.346158782,-0.493161929,1.249959121,-0.038838976,-1.484304733,1.387030672,9.610062941
0.3832,0.133950589,0.14836734,0.080621977,0.119246065,0.146117033,0.382009731,0.815112645,-0.535280056,-0.038263347,-1.383443945,1.202010096,9.739036172
0.384,0.133202373,0.147860681,0.080473034,0.145404191,0.153783015,0.37485065,1.43139094,-0.461327271,-0.044424747,-1.319522326,1.628810734,9.448471531
0.3848,0.132450792,0.147351921,0.080323582,0.130682885,0.142419855,0.377824629,-0.993099577,-0.447604789,-0.040975463,-1.235603929,1.220407266,9.755631719
0.3856,0.131695864,0.146841066,0.080173622,0.137418425,0.150210351,0.351934306,-0.867642678,-1.646957973,-0.034801059,-1.542616622,1.394567333,9.713045672
0.3864,0.130937609,0.146328125,0.080023156,0.123719139,0.129207537,0.41963039,0.692613036,-2.167338071,-0.043919589,-1.275416879,1.230870225,9.451411239
0.3872,0.130176045,0.145813104,0.079872185,0.142885274,0.132843357,0.373541272,2.759204722,2.407180299,-0.040803914,-1.376072348,1.344608556,9.75026686
0.388,0.129411192,0.14529601,0.079720709,0.145772972,0.148428658,0.353573802,-0.722248706,1.752876485,-0.040363401,-1.475365722,1.451888597,9.950940935
0.3888,0.12864307,0.144776852,0.079568729,0.13705717,0.146808911,0.424643136,-1.978943714,-2.235951441,-0.036705385,-1.266590603,1.264673554,9.562607562
0.3896,0.127871697,0.144255636,0.079416247,0.129882279,0.130583583,0.376341884,0.995545257,-1.969873446,-0.042987684,-1.15963221,1.173305846,9.57945952
0.3904,0.127097094,0.143732369,0.079263264,0.14499936,0.131101537,0.411519836,0.218025439,2.274329298,-0.044810007,-1.251649602,1.346994062,9.654256949
0.3912,0.126319279,0.14320706,0.079109779,0.131553035,0.148796247,0.384863946,-0.310365985,0.728119259,-0.034560557,-1.43765841,1.303384033,9.553454837
0.392,0.125538272,0.142679716,0.078955795,0.142517793,0.136911048,0.410668633,-0.312099134,-2.195123116,-0.036440531,-1.42288473,1.223038957,9.507545453
0.3928,0.124754094,0.142150344,0.078801312,0.129040978,0.131214575,0.376504622,-1.707379774,2.413096552,-0.035583144,-1.372057657,1.284569249,9.535582334
0.3936,0.123966764,0.141618952,0.078646332,0.128811863,0.156254119,0.420464161,-0.704937567,0.83954128,-0.030402405,-1.409824779,1.346050934,9.507813634
0.3944,0.123176301,0.141085546,0.078490854,0.123406954,0.137900063,0.421590523,-1.548636116,-1.416086436,-0.034118371,-1.197395126,1.270216192,9.508156732
0.3952,0.122382726,0.140550136,0.078334881,0.116446723,0.144937449,0.349207762,1.072517218,-2.296475586,-0.04489104,-1.336978349,1.058603916,9.727652914
0.396,0.12158606,0.140012728,0.078178413,0.131963462,0.119464439,0.409116894,-1.326673577,-0.217316549,-0.046637226,-1.090990402,1.308316746,9.536152792
0.3968,0.120786321,0.139473331,0.078021452,0.105800348,0.143227922,0.389092748,-2.934134594,1.095320891,-0.036970895,-1.454477602,0.950928223,9.789579633
0.3976,0.11998353,0.138931951,0.077863997,0.108476786,0.128147364,0.370370153,1.227768595,-0.314242666,-0.050222398,-1.15286338,1.233627198,9.652090615
0.3984,0.119177708,0.138388597,0.077706051,0.115598294,0.140661245,0.360825718,3.444256693,1.781062094,-0.03589685,-1.397725638,1.0971485,9.732559022
0.3992,0.118368875,0.137843275,0.077547613,0.136059054,0.142435748,0.409794958,-1.022119728,-0.664646743,-0.041929168,-1.338791059,1.429201252,9.612917051
0.4,0.11755705,0.137295995,0.077388686,0.107384227,0.135304047,0.426315287,-1.400878276,0.804199458,-0.03104571,-1.264868294,1.312848012,9.693877636
0.4008,0.116742256,0.136746763,0.07722927,0.12484165,0.148829842,0.38897181,2.504512008,-0.511830999,-0.041147785,-1.455963056,1.06788497,9.630357056
0.4016,0.115924512,0.136195588,0.077069367,0.12743297,0.131205536,0.373366841,-0.812397355,-2.242321168,-0.04744489,-1.333216172,1.235955778,9.640977457
0.4024,0.115103839,0.135642478,0.076908976,0.11836492,0.130892929,0.44078483,-0.741808668,2.269651727,-0.035625498,-1.309375594,1.119107277,9.505312475
0.4032,0.114280258,0.135087439,0.0767481,0.121485939,0.149356056,0.420027448,-0.443589452,-1.030662631,-0.039906292,-1.439926534,1.147521381,9.566913291
0.404,0.11345379,0.134530481,0.076586739,0.114912195,0.122721255,0.436934118,-0.138960808,-0.738441347,-0.039012606,-1.236668265,1.022386685,9.776174276
0.4048,0.112624455,0.133971611,0.076424894,0.120297297,0.143334343,0.358840191,0.745098517,2.019740501,-0.044853456,-1.362522522,0.948918441,9.759346535
0.4056,0.111792274,0.133410836,0.076262566,0.120827258,0.138859709,0.382808225,0.757035243,-0.261047056,-0.044253426,-1.501610594,1.15728118,9.716462259
0.4064,0.110957269,0.132848166,0.076099757,0.126321176,0.141280272,0.405387198,-2.190520799,-1.208452404,-0.04461154,-1.337077013,1.138876674,9.51346699
0.4072,0.11011946,0.132283607,0.075936467,0.103243385,0.12913748,0.373647909,-1.819990103,-2.00855374,-0.045493269,-1.555498517,1.14268117,9.58719122
0.408,0.109278869,0.131717169,0.075772697,0.111761974,0.125256316,0.433126082,-0.159426462,2.95755934,-0.03795032,-1.076756203,1.038559758,9.746963567
0.4088,0.108435517,0.131148858,0.075608449,0.101979304,0.152762477,0.370051376,0.115909828,0.83494838,-0.042500715,-1.306292351,0.968922353,9.422740647
0.4096,0.107589426,0.130578684,0.075443723,0.112655962,0.131920147,0.386749808,0.448837359,-1.678624599,-0.045443804,-1.165738825,1.038524051,9.606912434
0.4104,0.106740615,0.130006654,0.075278521,0.105536526,0.139338276,0.436935156,-3.456430275,1.283922744,-0.039045922,-1.403516783,1.002716557,9.269185492
0.4112,0.105889108,0.129432776,0.075112843,0.08505678,0.142181323,0.428328996,-2.417128892,-1.453906517,-0.036694182,-1.400045002,0.822916459,9.680792628
0.412,0.105034926,0.128857058,0.07494669,0.08626382,0.127661962,0.374040051,2.684118017,-4.408322278,-0.043156997,-1.127110324,0.781984326,9.694832357
0.4128,0.10417809,0.12827951,0.074780065,0.106571581,0.106851382,0.40608937,2.067534928,1.594228032,-0.044186232,-1.1119064,1.111549114,9.929564755
0.4136,0.103318621,0.127700138,0.074612966,0.102803108,0.140498763,0.424281043,-2.840382529,1.399494658,-0.0496257,-1.511608623,0.925884949,9.646354532
0.4144,0.102456542,0.127118951,0.074445397,0.083864927,0.118074362,0.414931698,-2.072171494,0.056217132,-0.038238746,-1.111421396,0.763707195,9.766453679
0.4152,0.101591875,0.126535957,0.074277357,0.086248052,0.140922069,0.43454121,0.81674384,2.015503584,-0.044429897,-1.356418687,0.973661704,9.6879588
0.416,0.10072464,0.125951166,0.074108848,0.090481998,0.13417297,0.400011789,1.424901477,-1.322966122,-0.041357021,-1.318573539,0.812208988,9.556746932
0.4168,0.099854861,0.125364584,0.073939872,0.097641825,0.130327434,0.367277251,1.875356822,-1.50119346,-0.047404425,-1.327096655,0.889939751,9.525820449
0.4176,0.098982559,0.12477622,0.073770428,0.105433817,0.122172328,0.443069754,-0.791909743,0.451129344,-0.043864275,-1.156224926,1.30594182,9.554103748
0.4184,0.098107755,0.124186083,0.073600518,0.09129634,0.133927751,0.39976988,-0.689813707,-1.349774938,-0.030682043,-1.294487,0.917784307,9.706767463
0.4192,0.097230473,0.123594181,0.073430143,0.099868115,0.111325268,0.388111916,2.081894367,-2.518335281,-0.040531469,-1.103459935,0.901201792,9.749438881
0.42,0.096350735,0.123000523,0.073259304,0.107960839,0.113765949,0.428921696,1.324068137,1.812577521,-0.045227096,-0.962701105,1.097723754,9.678841515
0.4208,0.095468562,0.122405116,0.073088003,0.110421916,0.125814045,0.455407192,-1.941465089,0.550163099,-0.039390621,-1.232844091,0.790590849,9.568256478
0.4216,0.094583977,0.12180797,0.072916239,0.092417467,0.118231397,0.38738639,-2.082241477,-2.868645221,-0.048227378,-0.978973133,0.901010588,9.595621558
0.4224,0.093697002,0.121209093,0.072744016,0.093838799,0.102815188,0.390671499,0.663881783,-0.376105147,-0.05076005,-0.99996753,0.87777862,9.645510311
0.4232,0.092807659,0.120608493,0.072571333,0.097730878,0.115219052,0.415651453,0.472040717,3.240239491,-0.041035191,-1.209000451,1.042760757,9.733321147
0.424,0.091915972,0.120006179,0.072398191,0.09758814,0.128756587,0.468716758,-2.91092019,-0.238618583,-0.049454515,-1.38011365,1.063627734,9.725367315
0.4248,0.091021963,0.119402159,0.072224592,0.074411189,0.11328968,0.441313092,-2.539077429,-1.190009599,-0.049286181,-1.250209271,0.886581003,9.87879336
0.4256,0.090125653,0.118796442,0.072050537,0.077198346,0.119262472,0.430764373,2.096274617,0.409121609,-0.039870051,-1.379207285,0.521614269,9.718276764
0.4264,0.089227067,0.118189037,0.071876027,0.091207005,0.11657762,0.426938679,1.513609262,1.235977286,-0.040824702,-1.128643088,0.846294777,9.695635706
0.4272,0.088326226,0.117579953,0.071701063,0.089327056,0.129103068,0.431540128,-1.148973072,-0.786169745,-0.044486423,-1.236676546,0.94749056,9.726785637
0.428,0.087423153,0.116969197,0.071525645,0.082020326,0.110328364,0.391289422,1.11739643,1.015632731,-0.048814075,-1.085240916,0.800991881,9.69523427
0.4288,0.086517872,0.116356779,0.071349777,0.098243218,0.137269152,0.407763096,-0.680281378,-0.744833588,-0.042251501,-1.465179298,0.87656155,9.951624899
0.4296,0.085610405,0.115742707,0.071173457,0.076615082,0.104309758,0.435157189,0.87560412,-2.505947969,-0.04772884,-1.043291047,0.865999281,9.721862756
0.4304,0.084700774,0.11512699,0.070996688,0.105265934,0.117212663,0.457622907,-0.473267327,-0.066947297,-0.039027135,-0.844169287,0.965262197,9.624517184
0.4312,0.083789004,0.114509637,0.07081947,0.072894917,0.103861575,0.419320805,-3.274594854,-1.038869592,-0.028842945,-0.925906994,0.766753602,9.781000729
0.432,0.082875116,0.113890656,0.070641805,0.079038304,0.108957929,0.463645959,0.15832041,3.504518811,-0.044102095,-1.002759412,0.860104757,9.771740298
0.4328,0.081959135,0.113270057,0.070463694,0.074195327,0.13191453,0.387563413,1.083385609,-0.304680129,-0.042936485,-1.382483342,0.733937691,9.723839024
0.4336,0.081041083,0.112647848,0.070285138,0.087718957,0.106546979,0.470844177,0.372366491,-1.934888063,-0.042397843,-1.175717263,0.931373548,9.71635564
0.4344,0.080120983,0.112024038,0.070106138,0.077195379,0.116452248,0.444683552,-1.403171237,1.771709542,-0.045672474,-1.10466371,0.775105031,9.810561868
0.4352,0.079198859,0.111398636,0.069926695,0.076553554,0.120727037,0.436236469,0.090145617,-0.97483199,-0.053814689,-1.215011647,0.838829603,9.85234332
0.436,0.078274733,0.110771651,0.06974681,0.077878189,0.108639815,0.484539594,-0.710378686,-0.646655664,-0.038165865,-0.983056584,0.72068621,9.754989504
0.4368,0.07734863,0.110143092,0.069566485,0.070886958,0.11560625,0.474841883,0.742129755,-2.69155551,-0.046611337,-0.868187663,0.552704494,9.79729205
0.4376,0.076420573,0.109512967,0.06938572,0.083825883,0.087083653,0.387428472,1.293053585,-0.218915084,-0.039537984,-0.817160126,0.72991175,9.95790781
0.4384,0.075490585,0.108881285,0.069204517,0.081258464,0.113906604,0.452087502,-1.1402986,0.411479253,-0.037108528,-1.199278709,0.693002296,9.69336261
0.4392,0.07455869,0.108248057,0.069022877,0.07473077,0.090360762,0.419059194,-1.170816997,-2.226359373,-0.044271186,-0.89892916,0.781291659,9.695832725
0.44,0.073624911,0.107613289,0.068840801,0.071842926,0.096146235,0.395708687,-0.391276043,1.86948838,-0.038170113,-1.012389758,0.842030367,9.687787708
0.4408,0.072689271,0.106976993,0.06865829,0.071641691,0.105373555,0.434333911,-1.796522649,1.116322963,-0.045005292,-1.180117398,0.893982177,9.793005991
0.4416,0.071751795,0.106339176,0.068475345,0.057455916,0.105119889,0.426136913,0.338220629,2.046960217,-0.04277446,-0.989689267,0.540717361,9.776984471
0.4424,0.070812506,0.105699847,0.068291968,0.0742936,0.121748026,0.435974738,1.723157397,0.998206708,-0.039691147,-1.149679834,0.740775676,9.578412307
0.4432,0.069871428,0.105059017,0.068108159,0.071320245,0.113104959,0.428038553,-0.795570064,-0.975953454,-0.036739396,-1.145251084,0.763727211,9.620683979
0.444,0.068928585,0.104416693,0.067923921,0.067959174,0.113897017,0.401078034,0.885500301,-1.728928317,-0.035001946,-1.120703735,0.715777937,9.883281257
0.4448,0.067984,0.103772885,0.067739253,0.078420385,0.099271202,0.441353502,0.29019376,0.822480091,-0.042159654,-0.907635757,0.791452576,9.879211536
0.4456,0.067037697,0.103127603,0.067554157,0.070224081,0.120518032,0.468241012,-3.158454419,3.13940943,-0.042777022,-1.241111355,0.849180883,9.736617312
0.4464,0.0660897,0.102480855,0.067368635,0.053107653,0.124404278,0.444130079,0.08413368,-1.2856213,-0.042702768,-1.158228608,0.516770284,9.543054836
0.4472,0.065140034,0.10183265,0.067182687,0.070879661,0.110312955,0.398822206,-0.665834246,-1.49031545,-0.051979792,-0.91591086,0.736079327,9.522626711
0.448,0.064188722,0.101182998,0.066996315,0.047748408,0.112438703,0.488656768,-0.137196961,-1.68024119,-0.044638687,-1.200423305,0.325323841,9.76093316
0.4488,0.063235788,0.100531908,0.066809519,0.069789045,0.096885112,0.481411086,3.533152861,-1.892664161,-0.047704785,-1.058252278,0.699844722,9.778897919
0.4496,0.062281256,0.099879389,0.066622302,0.076030288,0.097306531,0.49775368,0.091786671,-1.052731407,-0.042802527,-1.092403436,0.867239948,9.538655262
0.4504,0.061325151,0.099225451,0.066434663,0.070555272,0.088458694,0.499479693,-0.536425162,1.523819544,-0.061703958,-1.035057632,0.723381234,9.9754841
0.4512,0.060367496,0.098570102,0.066246606,0.071744406,0.109494011,0.405543151,-0.663900198,1.552137579,-0.043796129,-1.281847862,0.689350049,9.699708028
0.452,0.059408316,0.097913353,0.066058129,0.065195674,0.100888155,0.426999894,-1.735915497,-1.543321012,-0.053257246,-1.045254283,0.740577535,9.71370755
0.4528,0.058447635,0.097255212,0.065869236,0.057804607,0.097120398,0.45497233,-1.773110987,0.509686089,-0.047232571,-0.979139489,0.779909823,9.552069877
0.4536,0.057485478,0.096595689,0.065679926,0.051028816,0.104989655,0.446990252,1.047381436,-1.181655581,-0.04717401,-0.994721942,0.456996579,9.752161371
0.4544,0.056521867,0.095934793,0.065490201,0.066182729,0.087757748,0.444928059,1.819219833,-2.293657607,-0.053516055,-0.820111815,0.688020723,9.986690798
0.4552,0.055556829,0.095272533,0.065300063,0.065606611,0.086674175,0.496579377,-0.874065358,-0.240513597,-0.045703673,-0.748340385,0.637550348,9.786244412
0.456,0.054590387,0.09460892,0.065109512,0.05913377,0.085824138,0.460928241,-1.385694126,0.912329408,-0.050895912,-0.884624332,0.587140737,9.907343137
0.4568,0.053622566,0.093943962,0.06491855,0.054572322,0.093883772,0.492779585,-3.704994236,-0.257988664,-0.041283167,-0.94628734,0.631936772,9.687407165
0.4576,0.05265339,0.093277668,0.064727178,0.029484539,0.083729659,0.424295941,0.896857957,1.516603125,-0.054553958,-0.836961262,0.360427377,9.940063963
0.4584,0.051682883,0.09261005,0.064535397,0.061734691,0.10601959,0.487133136,2.364080258,0.001005011,-0.04770056,-0.838399777,0.584958832,9.649533951
0.4592,0.050711071,0.091941114,0.064343209,0.048400636,0.083706664,0.50155498,0.116627927,-3.11438544,-0.053090528,-0.727942427,0.400427622,9.913541355
0.46,0.049737977,0.091270873,0.064150614,0.062740853,0.081144806,0.499466258,-0.251516821,0.693693609,-0.053074739,-0.950404934,0.668646137,9.789478531
0.4608,0.048763627,0.090599334,0.063957614,0.04641754,0.089265238,0.457519706,-2.102222909,1.104297443,-0.040734387,-0.888614243,0.378200916,9.860562178
0.4616,0.047788045,0.089926507,0.06376421,0.045885848,0.089940181,0.468977536,1.62925916,0.397914259,-0.048333713,-0.881810374,0.251782283,9.641529559
0.4624,0.046811255,0.089252402,0.063570403,0.05945421,0.092449258,0.49253852,0.663411388,-3.765885666,-0.042919675,-0.848093527,0.614234618,9.732049414
0.4632,0.045833283,0.088577029,0.063376194,0.051137998,0.05990261,0.44682416,-3.463470144,0.570879588,-0.050967114,-0.617517318,0.564978221,9.846371688
0.464,0.044854152,0.087900397,0.063181586,0.031819352,0.096984778,0.508605532,-0.771953449,4.772852954,-0.05296518,-1.089715675,0.319638462,9.881903201
0.4648,0.043873888,0.087222516,0.062986578,0.044966497,0.098004002,0.493116159,1.159065139,-3.540343256,-0.053500725,-1.085253304,0.588997312,9.70819351
0.4656,0.042892516,0.086543395,0.062791172,0.041111685,0.06863451,0.512524306,-1.354690387,-0.872907164,-0.0542743,-0.516836138,0.454857907,9.608965541
0.4664,0.04191006,0.085863044,0.06259537,0.034022524,0.091063793,0.445334751,-1.391092364,2.687537673,-0.050584663,-0.823483338,0.144604632,9.828729081
0.4672,0.040926545,0.085181473,0.062399172,0.030024061,0.090152059,0.443068681,-0.171078044,0.717454855,-0.054414622,-0.945825642,0.293774681,9.735438849
0.468,0.039941996,0.084498691,0.06220258,0.032647121,0.096831027,0.473675169,0.960651361,-2.274024894,-0.04782939,-0.803982792,0.241460352,9.949712319
0.4688,0.038956438,0.083814709,0.062005595,0.037686827,0.071968252,0.475948404,0.394596141,-3.864836394,-0.053146595,-0.798273644,0.32967317,9.712111768
0.4696,0.037969895,0.083129535,0.061808219,0.035790015,0.065870464,0.458999002,0.416739954,0.456450347,-0.046155446,-0.62615804,0.331722252,9.886496461
0.4704,0.036982394,0.08244318,0.061610452,0.040992722,0.07560375,0.505517964,-0.724390019,0.267210892,-0.049541101,-0.667788999,0.213902676,9.849655378
0.4712,0.035993957,0.081755653,0.061412296,0.030001529,0.068029513,0.514368369,-0.314632454,1.915627669,-0.044464518,-0.644455369,0.522515288,9.746717751
0.472,0.035004612,0.081066964,0.061213752,0.038479089,0.090932064,0.455346089,0.426335928,1.512791352,-0.057545829,-0.759460717,0.194743958,9.590481517
0.4728,0.034014382,0.080377122,0.061014821,0.033426214,0.080116999,0.4900658,1.055684274,-1.10322725,-0.047086896,-0.740832703,0.207545594,9.789495049
0.4736,0.033023292,0.079686139,0.060815505,0.046929444,0.082080015,0.462732593,-0.083519859,-0.624065646,-0.061640447,-0.614276054,0.485742268,9.77769374
0.4744,0.032031368,0.078994023,0.060615805,0.032799052,0.075228682,0.472053914,-3.066009308,1.024015313,-0.046145744,-0.91669257,0.306623021,9.96803632
0.4752,0.031038635,0.078300784,0.060415722,0.022431706,0.090276964,0.458398028,2.131939435,0.801151852,-0.052252568,-0.845984104,0.307226537,9.850505264
0.476,0.030045118,0.077606433,0.060215257,0.049752912,0.08164158,0.457516664,0.54306851,-1.691541659,-0.043179169,-0.64547038,0.713409633,9.722211752
0.4768,0.029050841,0.076910979,0.060014412,0.026729396,0.07679124,0.464184316,-1.45962514,-0.811545581,-0.052258625,-0.766666841,0.410280147,9.937646538
0.4776,0.028055831,0.076214431,0.059813188,0.038129296,0.07515267,0.49553801,-1.635144613,-1.182842304,-0.050112549,-0.661164588,0.395346124,9.763204698
0.4784,0.027060111,0.0755168,0.059611586,0.013654279,0.067251824,0.497173612,-0.389895129,0.00985453,-0.05194477,-0.628400056,0.137330442,9.694588981
0.4792,0.026063708,0.074818096,0.059409608,0.034962559,0.075190341,0.472648485,3.596926534,0.403516286,-0.054736382,-0.756674096,0.222426701,9.526864967
0.48,0.025066647,0.074118329,0.059207254,0.042378233,0.070434629,0.480093873,0.03462727,1.94324949,-0.050396364,-0.976003187,0.55972113,9.710350596
0.4808,0.024068952,0.073417509,0.059004527,0.035180139,0.090685694,0.485916384,-1.789716714,-0.401137982,-0.045001835,-0.984341547,0.414303892,9.888834729
0.4816,0.023070649,0.072715644,0.058801426,0.028043254,0.067242623,0.506272156,-0.634942166,-2.077856676,-0.042558355,-0.479847039,0.038437262,9.66944717
0.4824,0.022071763,0.072012747,0.058597954,0.030134614,0.07414066,0.488795629,1.826579988,0.012122949,-0.042901822,-0.720754025,0.322117486,9.718818509
0.4832,0.021072319,0.071308826,0.058394112,0.042736243,0.067276228,0.469309316,-1.396858355,-1.077864247,-0.043958242,-0.615337142,0.355039585,9.797304527
0.484,0.020072343,0.070603892,0.058189902,0.018974696,0.065503867,0.481607577,-1.143784798,0.077024523,-0.050470891,-0.658824381,0.060134412,9.930999998
0.4848,0.01907186,0.069897954,0.057985323,0.033576045,0.067874603,0.441440358,0.02336256,-0.950572403,-0.054495051,-0.876002341,0.411073707,9.914328381
0.4856,0.018070895,0.069191022,0.057780379,0.019129513,0.057873354,0.454106242,-2.304939996,0.826159906,-0.056613318,-0.634232803,0.145598647,9.702359643
0.4864,0.017069473,0.068483108,0.057575069,0.015151323,0.074553895,0.461253108,0.104480201,-0.248627781,-0.057074026,-0.686750992,0.078471332,9.792771495
0.4872,0.01606762,0.06777422,0.057369396,0.020016941,0.055946522,0.467154605,-0.346977563,-0.910659173,-0.047607398,-0.538323674,0.225555371,9.77702175
0.488,0.015065361,0.067064369,0.05716336,0.012432666,0.067316595,0.496298553,-0.416513157,4.730787036,-0.04527533,-0.72823476,0.255883496,9.720676708
0.4888,0.014062722,0.066353564,0.056956963,0.016669353,0.093760207,0.485166968,-0.927307929,0.321533949,-0.050119553,-0.886584629,0.25426687,9.981478775
0.4896,0.013059727,0.065641817,0.056750207,0.004991254,0.069886291,0.511317874,-1.714812882,-4.188095392,-0.05179359,-0.631612163,0.086030237,9.760770739
0.4904,0.012056402,0.064929137,0.056543092,0.002842156,0.060315228,0.539273476,3.125753806,-0.898786853,-0.051171186,-0.647273822,-0.005599926,9.721402715
0.4912,0.011052772,0.064215534,0.05633562,0.030001936,0.062731397,0.47566165,1.738545846,1.341896319,-0.046676515,-0.5358234,0.315868438,9.733334012
0.492,0.010048864,0.063501018,0.056127792,0.0167915,0.071074951,0.469224821,-1.067646915,-1.28460479,-0.053462748,-0.620136158,0.159784634,9.845352126
0.4928,0.009044701,0.0627856,0.055919609,0.021527857,0.052433603,0.520118027,-0.505298442,-0.376369872,-0.062937285,-0.518406902,0.199269513,9.902291433
0.4936,0.00804031,0.062069289,0.055711074,0.012759552,0.068023134,0.491890185,-0.523556612,2.731361019,-0.048657194,-0.626797549,0.176167243,9.780245521
0.4944,0.007035716,0.061352097,0.055502186,0.017284358,0.074334031,0.460243957,-2.152280073,2.347900894,-0.048140098,-0.654610229,0.295192029,9.764271322
0.4952,0.006030944,0.060634032,0.055292948,-0.004469098,0.086825708,0.480351403,-1.83295504,-4.696539463,-0.060166616,-0.817281927,-0.10406662,9.885808215
0.496,0.005026019,0.059915106,0.05508336,0.002584396,0.036720695,0.477048297,-0.456803162,-4.486223316,-0.059335663,-0.255469842,0.169838204,9.695076188
0.4968,0.004020968,0.059195328,0.054873425,-0.008187041,0.050970905,0.489416813,0.025907863,3.099535527,-0.048024606,-0.536171389,-0.099631656,9.935423335
0.4976,0.003015815,0.058474709,0.054663143,0.002782417,0.061505507,0.537208461,-1.110689259,2.883695766,-0.048316638,-0.558281932,0.105147256,9.77204055
0.4984,0.002010585,0.057753259,0.054452516,-0.017022101,0.07402246,0.45447321,0.3259601,-1.426376961,-0.055259221,-0.867384789,-0.101264839,9.999617588
0.4992,0.001005305,0.057030988,0.054241544,0.005426902,0.050121018,0.469789145,0.103477618,-1.528439924,-0.050842451,-0.430317753,0.064587811,9.5614
0.5,2.45E-17,0.056307906,0.054030231,-0.016116382,0.061818744,0.471343639,-0.651462189,0.74818849,-0.04228255,-0.475743402,-0.112715561,9.898099762
0.5008,-0.001005305,0.055584024,0.053818575,0.000190612,0.05613221,0.541582618,2.298651707,-0.775277226,-0.05515894,-0.657125737,0.355020032,9.888306816
0.5016,-0.002010585,0.054859353,0.05360658,0.002289711,0.055619776,0.529714825,-1.891575618,-1.613539229,-0.048192255,-0.506239434,-0.150791948,9.606304189
0.5024,-0.003015815,0.054133901,0.053394247,-0.014964182,0.043206667,0.500589075,-2.000863166,-1.178687659,-0.057744465,-0.386103006,-0.084959169,9.880524095
0.5032,-0.004020968,0.05340768,0.053181576,-0.01365564,0.046290755,0.467978026,1.47801762,1.468621,-0.061031484,-0.317365758,-0.218596377,9.776049678
0.504,-0.005026019,0.052680701,0.052968569,-0.003090308,0.054990709,0.551229817,-0.832872008,-1.316531713,-0.055715541,-0.406214878,-0.030375487,9.855552567
0.5048,-0.006030944,0.051952972,0.052755227,-0.02036423,0.035719676,0.533544478,1.052254452,0.566029483,-0.045185065,-0.294174415,-0.154118305,9.777995895
0.5056,-0.007035716,0.051224505,0.052541553,0.005349689,0.059515866,0.483769475,0.849386267,-0.184796234,-0.053776894,-0.553641507,-0.171127278,9.914189845
0.5064,-0.00804031,0.05049531,0.052327546,-0.013619203,0.034250776,0.495111934,1.046162061,1.08391907,-0.055726026,-0.535092564,-0.070044013,9.501610606
0.5072,-0.009044701,0.049765398,0.052113209,0.013727444,0.06824445,0.47509608,0.861305914,1.1587575,-0.047433128,-0.752719955,0.200996746,9.656885838
0.508,-0.010048864,0.049034778,0.051898543,-0.006740187,0.04348966,0.532908881,-2.879952781,-2.418434742,-0.046881111,-0.393940402,-0.183615265,9.865242957
0.5088,-0.011052772,0.048303461,0.051683549,-0.009272516,0.048860789,0.510248838,-0.341181966,-0.610035318,-0.051907102,-0.502914376,-0.089231973,9.878553339
0.5096,-0.012056402,0.047571458,0.051468228,-0.009451263,0.038578165,0.4751656,-0.691608183,0.950830242,-0.049590613,-0.50032288,-0.031572108,9.688988545
0.5104,-0.013059727,0.046838778,0.051252582,-0.014769861,0.056488691,0.535556281,-0.616245496,2.078007365,-0.05813302,-0.506302921,-0.068661557,9.77635915
0.5112,-0.014062722,0.046105433,0.051036613,-0.014417096,0.055249149,0.494441886,0.813908236,-2.118684942,-0.045316285,-0.64407858,-0.113789948,9.958806954
0.512,-0.015065361,0.045371433,0.050820321,-0.008285757,0.039533193,0.490488484,-1.61028847,-3.240341078,-0.056085758,-0.488976271,-0.042540056,10.03699689
0.5128,-0.01606762,0.044636788,0.050603708,-0.027370744,0.029298533,0.521229512,0.006734023,-0.634748298,-0.051434119,-0.317715953,-0.435396992,9.717336508
0.5136,-0.017069473,0.043901508,0.050386776,-0.008259512,0.034449618,0.561887307,-0.563472597,0.369885935,-0.053359566,-0.403699218,-0.13313209,9.866838072
0.5144,-0.018070895,0.043165605,0.050169525,-0.031896021,0.032271107,0.531631409,-3.498010759,1.13514859,-0.043012549,-0.40036351,-0.296817964,9.839133997
0.5152,-0.01907186,0.042429088,0.049951958,-0.03623567,0.043502026,0.544098739,1.487264641,1.840585678,-0.061540799,-0.393210559,-0.24039673,9.841127144
0.516,-0.020072343,0.041691968,0.049734074,-0.020022192,0.046978446,0.523023919,1.305571951,0.063803645,-0.050946611,-0.427453713,-0.054430254,9.586141669
0.5168,-0.021072319,0.040954256,0.049515877,-0.025774101,0.044011678,0.481256602,-1.454992295,-1.969664648,-0.057812917,-0.38584109,-0.261961929,9.739987389
0.5176,-0.022071763,0.040215961,0.049297367,-0.03160984,0.031244183,0.561567082,2.241918734,-1.658917145,-0.047318361,-0.187393919,-0.252795734,9.763519063
0.5184,-0.023070649,0.039477095,0.049078546,-0.007891119,0.030768018,0.564223045,-0.649878588,-1.110368821,-0.058504092,-0.238094231,-0.013715989,9.736620066
0.5192,-0.024068952,0.038737668,0.048859414,-0.036734454,0.022329605,0.540472396,-0.158937551,2.864462801,-0.062824347,-0.320168467,-0.220900963,9.755443117
0.52,-0.025066647,0.03799769,0.048639974,-0.009196481,0.053692854,0.500493394,1.129279341,0.471335131,-0.052966287,-0.458642557,-0.069266163,9.829337636
0.5208,-0.026063708,0.037257173,0.048420227,-0.027706272,0.026103323,0.510366675,-3.812655923,-2.682926639,-0.053751677,-0.073020257,-0.389175411,9.873483585
0.5216,-0.027060111,0.036516125,0.048200174,-0.039646963,0.03217141,0.539121726,0.999611955,0.814515696,-0.051279015,-0.437282483,-0.49696139,9.885401539
0.5224,-0.028055831,0.035774559,0.047979816,-0.019681961,0.032621912,0.508822788,3.140262912,0.354565009,-0.053221853,-0.323191105,-0.320399755,9.772447451
0.5232,-0.029050841,0.035032485,0.047759156,-0.014566124,0.03504121,0.489972167,-1.599901198,1.79755492,-0.057926648,-0.407270657,-0.199989667,9.946316153
0.524,-0.030045118,0.034289912,0.047538193,-0.032479883,0.047026213,0.496026429,-3.464829892,0.53758206,-0.055833579,-0.310624434,-0.378649293,9.760786234
0.5248,-0.031038635,0.033546852,0.047316931,-0.04222701,0.039337399,0.540818403,-0.060897933,-2.722986302,-0.067088825,-0.362425627,-0.454403351,9.813110431
0.5256,-0.032031368,0.032803316,0.047095369,-0.03301071,0.02520628,0.529353351,0.177100462,-0.187734532,-0.049061466,-0.168219444,-0.289449286,9.658503624
0.5264,-0.033023292,0.032059313,0.04687351,-0.040763288,0.037884569,0.531659918,-0.57107607,0.88933542,-0.065096076,-0.309851314,-0.540194809,9.985395734
0.5272,-0.034014382,0.031314854,0.046651355,-0.037619073,0.032232525,0.534785176,1.103606386,-0.63843472,-0.066204099,-0.343231424,-0.377160277,9.70628273
0.528,-0.035004612,0.030569951,0.046428905,-0.031915297,0.032802992,0.488063188,0.45428474,0.988441877,-0.055267846,-0.343157183,-0.285736004,9.871266764
0.5288,-0.035993957,0.029824613,0.046206162,-0.034000794,0.040074815,0.531716056,-1.615519552,-1.050553037,-0.046889635,-0.379912786,-0.237495953,9.706594379
0.5296,-0.036982394,0.029078851,0.045983127,-0.044779161,0.02435118,0.522324874,0.009058415,-1.709470258,-0.040719824,-0.227193435,-0.340605192,10.09400064
0.5304,-0.037969895,0.028332676,0.045759802,-0.033985784,0.02634041,0.523815366,1.255867403,2.17751361,-0.055962774,-0.242337277,-0.254537192,9.884961923
0.5312,-0.038956438,0.027586098,0.045536188,-0.034768379,0.041786552,0.536255225,-1.397891428,0.80488109,-0.061272534,-0.301686898,-0.295853955,9.99219474
0.532,-0.039941996,0.026839128,0.045312286,-0.045134419,0.032798617,0.521264048,0.005211164,-1.633746432,-0.061284866,-0.23898602,-0.325324178,9.749983015
0.5328,-0.040926545,0.026091777,0.045088098,-0.034682845,0.028731382,0.563946856,2.055203127,1.319980807,-0.042239095,-0.084417764,-0.238205188,9.713173787
0.5336,-0.04191006,0.025344055,0.044863625,-0.028665791,0.043401038,0.501035086,-0.062683017,-0.630056451,-0.058553453,-0.430677216,-0.122101924,9.861803401
0.5344,-0.042892516,0.024595972,0.044638868,-0.03513104,0.023710921,0.489736286,-3.224011108,-2.889944076,-0.054486638,-0.104892214,-0.351301989,9.706440043
0.5352,-0.043873888,0.02384754,0.04441383,-0.05445692,0.020319128,0.5468277,-1.636572486,-0.177971729,-0.048774612,-0.329088997,-0.492025293,9.873725576
0.536,-0.044854152,0.02309877,0.044188511,-0.04822166,0.022300982,0.541247233,2.889486145,-1.755624872,-0.05734207,-0.358930353,-0.304994847,9.912928004
0.5368,-0.045833283,0.02234967,0.043962913,-0.031351302,0.006242389,0.551351091,-1.003270322,-0.068083241,-0.055320726,-0.187528816,-0.257986791,10.00817254
0.5376,-0.046811255,0.021600254,0.043737037,-0.05625502,0.021730095,0.536339639,-3.163846941,0.69121761,-0.05802272,-0.122559282,-0.509789386,9.987935512
0.5384,-0.047788045,0.02085053,0.043510885,-0.056702436,0.011694392,0.516353451,-0.300022487,0.943408569,-0.051653586,-0.201797299,-0.469815802,9.834073571
0.5392,-0.048763627,0.02010051,0.043284458,-0.058699912,0.029282043,0.562089946,3.019868464,0.501009712,-0.054920149,-0.248631843,-0.462366108,9.827594451
0.54,-0.049737977,0.019350204,0.043057758,-0.0324583,0.015683007,0.578551708,1.415768283,-0.306858472,-0.05110123,-0.081821865,-0.51537466,9.776376756
0.5408,-0.050711071,0.018599623,0.042830786,-0.047389498,0.026830505,0.534101354,-3.205296722,2.542410848,-0.055408737,-0.300058076,-0.300924491,9.915711227
0.5416,-0.051682883,0.017848778,0.042603543,-0.058091476,0.036062213,0.544047501,-3.380038408,-2.414013986,-0.05777823,-0.327953235,-0.638230588,9.896917012
0.5424,-0.05265339,0.01709768,0.042376031,-0.074373045,0.007455873,0.580201402,0.515272709,-3.741131775,-0.050891399,-0.010332986,-0.846508961,9.83989117
0.5432,-0.053622566,0.016346338,0.042148252,-0.053879491,0.006117689,0.54021245,1.349512452,1.159893403,-0.05069912,-0.106984646,-0.391402521,9.607641357
0.544,-0.054590387,0.015594764,0.041920206,-0.063566257,0.01676569,0.558240266,-0.289828151,2.433813318,-0.052384469,0.165401698,-0.670682359,9.723058893
0.5448,-0.055556829,0.014842968,0.041691896,-0.05618647,0.025576621,0.573716616,-0.33998749,0.55985458,-0.057516906,-0.158899891,-0.524265222,9.805072911
0.5456,-0.056521867,0.014090961,0.041463322,-0.066308111,0.021321178,0.506962184,-0.054848003,-0.071822355,-0.062685941,-0.540795887,-0.735252278,9.854176857
0.5464,-0.057485478,0.013338755,0.041234486,-0.056596338,0.024988454,0.50713086,-0.38239539,-1.72092014,-0.061212666,-0.325315728,-0.548812228,9.788574396
0.5472,-0.058447635,0.012586358,0.04100539,-0.069392634,0.007502569,0.499889075,1.840927485,-0.561411863,-0.055769061,-0.115052075,-0.856476658,9.757543824
0.548,-0.059408316,0.011833783,0.040776034,-0.041895812,0.02052793,0.57616615,-1.141238344,2.88281614,-0.064903137,-0.140808231,-0.286568121,9.718940812
0.5488,-0.060367496,0.011081039,0.040546421,-0.078504825,0.030553089,0.522957028,-2.961411713,0.373606578,-0.061050699,-0.413499253,-0.670722603,9.741030803
0.5496,-0.061325151,0.010328138,0.040316553,-0.065620506,0.023508463,0.579622149,1.901009933,-3.492469398,-0.054443315,-0.220772572,-0.689486586,9.761353595
0.5504,-0.062281256,0.00957509,0.040086429,-0.063286517,0.00264416,0.59184735,1.243443438,-1.082819509,-0.059799188,-0.101355093,-0.712064222,9.809037136
0.5512,-0.063235788,0.008821906,0.039856052,-0.05569537,0.014879308,0.512183836,-2.277220627,2.229443278,-0.059863066,-0.051162727,-0.625086419,9.837560431
0.552,-0.064188722,0.008068597,0.039625424,-0.081478405,0.02048114,0.573630293,-1.045997631,-2.298337284,-0.065130309,-0.048637153,-0.781003177,9.735505088
0.5528,-0.065140034,0.007315173,0.039394545,-0.064004756,-0.003539934,0.573526863,0.561594743,-0.137346654,-0.056844924,-0.025811619,-0.792731788,9.821431941
0.5536,-0.0660897,0.006561645,0.039163417,-0.076948741,0.019338761,0.561061239,0.891014445,0.113462162,-0.049167231,-0.103312878,-0.793822024,9.70806965
0.5544,-0.067037697,0.005808024,0.038932042,-0.056860457,-0.002585956,0.561669558,2.833409379,-2.785913312,-0.051838229,0.203646373,-0.571361943,9.829628268
0.5552,-0.067984,0.00505432,0.038700421,-0.054246138,-0.002943817,0.520787621,-2.43609136,1.091307883,-0.069558663,0.126832136,-0.557202981,9.859559942
0.556,-0.068928585,0.004300545,0.038468555,-0.076372299,0.006145884,0.518640153,-1.87800353,-0.52042357,-0.050486443,0.072946025,-0.778129362,9.834415138
0.5568,-0.069871428,0.003546708,0.038236447,-0.069302657,-0.007165305,0.543156213,-1.007383622,-0.135522623,-0.066053986,0.108718766,-0.937507635,9.810854728
0.5576,-0.070812506,0.002792821,0.038004097,-0.084393682,0.005070998,0.533814363,-0.521618635,1.477257484,-0.066884495,-0.21180225,-0.844879995,9.755636543
0.5584,-0.071751795,0.002038894,0.037771507,-0.073454079,0.004682829,0.565013925,0.539775921,-1.295719831,-0.056530843,-0.100995199,-0.764557539,9.646331125
0.5592,-0.072689271,0.001284938,0.037538678,-0.079983844,-0.005265982,0.540070428,-0.872898188,-2.956979239,-0.067186952,0.119948798,-0.914937758,9.719940228
0.56,-0.073624911,0.000530964,0.037305613,-0.080416785,-0.019017744,0.557534444,0.378667581,1.479911793,-0.059716421,0.271729831,-0.636576328,9.699112255
0.5608,-0.07455869,-0.000223017,0.037072311,-0.076944101,0.006524314,0.532536535,-0.873961153,-0.885196727,-0.065621368,-0.004133964,-1.009279177,9.750217619
0.5616,-0.075490585,-0.000976996,0.036838776,-0.087441696,-0.026134344,0.597682467,-0.567052715,-1.373804885,-0.067933493,0.196834205,-0.764004184,9.656723524
0.5624,-0.076420573,-0.00173096,0.036605008,-0.081427216,-0.004410064,0.594933882,0.432917001,2.482330672,-0.055077034,-0.015475198,-0.805120231,9.778695314
0.5632,-0.07734863,-0.0024849,0.036371008,-0.083997302,-0.006285462,0.561827635,0.494810031,-0.52534657,-0.054970143,0.030133807,-0.79980497,9.883728059
0.564,-0.078274733,-0.003238805,0.036136779,-0.077422523,-0.008612117,0.53055852,0.191928333,1.105096095,-0.059049058,0.04440857,-0.841984135,9.733929886
0.5648,-0.079198859,-0.003992663,0.035902322,-0.082441234,0.002441122,0.563594487,-0.781017198,-0.430385855,-0.061098252,0.124990403,-0.978183156,9.834780181
0.5656,-0.080120983,-0.004746465,0.035667637,-0.083602132,-0.012118289,0.609267026,-0.75388853,-1.405928566,-0.058463379,0.103284189,-0.890008053,9.827356367
0.5664,-0.081041083,-0.005500199,0.035432728,-0.08847347,-0.00876006,0.584679726,-0.117831394,2.506013214,-0.065460965,0.028156121,-0.819303726,9.756570281
0.5672,-0.081959135,-0.006253856,0.035197595,-0.084510319,0.007939115,0.548022152,1.266300985,2.843268037,-0.057813612,-0.062169754,-0.706794893,9.936012272
0.568,-0.082875116,-0.007007423,0.034962239,-0.078275348,0.013899768,0.571640755,1.213895486,-2.256950537,-0.058415694,-0.195109532,-0.896082293,9.697390738
0.5688,-0.083789004,-0.007760891,0.034726662,-0.074789523,-0.01011974,0.599065586,-0.19939374,-4.285183976,-0.061253515,0.188903842,-0.657592039,9.957589254
0.5696,-0.084700774,-0.008514248,0.034490867,-0.079861212,-0.020376862,0.6136302,1.798399325,0.171239702,-0.067248216,0.145954705,-0.86426144,9.835575812
0.5704,-0.085610405,-0.009267484,0.034254853,-0.060474141,-0.008705553,0.522886241,-1.835543918,1.797206455,-0.056703554,0.092462892,-0.578825108,9.825237436
0.5712,-0.086517872,-0.010020589,0.034018623,-0.094552292,-0.00598677,0.532155636,-1.325623245,1.30270065,-0.056867367,-0.078822385,-0.946370304,9.649119082
0.572,-0.087423153,-0.010773551,0.033782178,-0.071105472,0.00165614,0.595433667,1.713353379,0.084436069,-0.060040298,-0.001312774,-0.748303105,9.647860043
0.5728,-0.088326226,-0.011526361,0.033545519,-0.080838293,-0.005323625,0.539815406,-1.438587155,-2.002333784,-0.060236643,0.022334362,-0.872529541,9.633326978
0.5736,-0.089227067,-0.012279006,0.033308649,-0.082586213,-0.014339126,0.525986632,-1.773219952,-0.816902687,-0.059664518,0.240738478,-0.788236496,9.659985391
0.5744,-0.090125653,-0.013031477,0.033071569,-0.09501346,-0.011878045,0.567412886,-1.441326757,0.484813558,-0.057748139,0.325941362,-1.041874611,9.771584322
0.5752,-0.091021963,-0.013783763,0.032834279,-0.094116368,-0.010393987,0.591423132,2.013824902,-0.481630626,-0.057355734,0.174341452,-0.923089361,9.847324416
0.576,-0.091915972,-0.014535852,0.032596782,-0.078857538,-0.015764311,0.558508403,-1.81806997,-0.213135179,-0.057396232,0.070524003,-0.852810702,9.695974796
0.5768,-0.092807659,-0.015287735,0.032359079,-0.108708701,-0.012157562,0.584534782,-1.30063391,-0.588876941,-0.051931237,0.167145694,-1.134370706,9.735265377
0.5776,-0.093697002,-0.016039401,0.032121172,-0.089275224,-0.020548034,0.626503704,3.110934718,-1.219868457,-0.050036785,0.077420399,-1.081347822,9.812107915
0.5784,-0.094583977,-0.016790839,0.031883062,-0.083818994,-0.022008544,0.554551206,-0.116891869,1.721834858,-0.057109725,0.314571677,-0.841717715,9.866585919
0.5792,-0.095468562,-0.017542039,0.031644751,-0.090195593,-0.006784787,0.533026592,-1.913024762,0.131289929,-0.056083403,0.032054501,-0.866171669,9.717533796
0.58,-0.096350735,-0.018292988,0.031406239,-0.099182591,-0.021020531,0.614929827,-3.929496978,-0.85494449,-0.06907604,0.120838058,-0.924322854,9.645030153
0.5808,-0.097230473,-0.019043678,0.031167529,-0.121615772,-0.013630831,0.620801905,-1.105511681,1.959575923,-0.05777917,-0.100689031,-1.194525777,9.686393753
0.5816,-0.098107755,-0.019794098,0.030928623,-0.10800171,-0.005272862,0.579255652,2.48958825,0.751012101,-0.04699513,-0.062728046,-1.081073242,9.78251331
0.5824,-0.098982559,-0.020544236,0.030689521,-0.101671652,-0.007589828,0.548884342,1.362734013,-1.792513671,-0.05939344,0.007396542,-0.86246048,9.526502914
0.5832,-0.099854861,-0.021294082,0.030450225,-0.097022274,-0.019638999,0.600161059,-0.594385631,-1.532290807,-0.064642977,0.204811542,-0.902608919,9.88059423
0.584,-0.10072464,-0.022043625,0.030210737,-0.106415555,-0.019845827,0.62476565,0.458866963,-0.283937601,-0.061453002,0.305855225,-1.048945469,9.828910108
0.5848,-0.101591875,-0.022792855,0.029971058,-0.093323951,-0.021873996,0.593292084,-1.186300566,0.593108289,-0.058017258,0.149450584,-1.045481055,9.995839723
0.5856,-0.102456542,-0.023541762,0.029731189,-0.115984126,-0.015112465,0.552931252,-2.322575814,1.227342963,-0.061265819,0.079178931,-1.102064782,9.885734308
0.5864,-0.103318621,-0.024290333,0.029491133,-0.111789173,-0.012051091,0.631700801,-1.532646441,-1.366668059,-0.058273484,0.287844701,-0.816234347,9.762339218
0.5872,-0.10417809,-0.02503856,0.029250891,-0.128234039,-0.02600791,0.547164318,0.676758368,-1.127344502,-0.06754532,0.306885718,-1.187690809,9.599267489
0.588,-0.105034926,-0.02578643,0.029010464,-0.106425667,-0.02101031,0.550694072,2.87382089,0.602162055,-0.052375579,0.275736971,-1.206312662,9.570699337
0.5888,-0.105889108,-0.026533934,0.028769853,-0.10530423,-0.021240375,0.622657808,-0.366805284,1.756782512,-0.073290729,0.153815257,-0.998890362,9.73170736
0.5896,-0.106740615,-0.027281061,0.028529061,-0.109335101,-0.006980489,0.596270955,1.251084266,-0.301967473,-0.067587774,0.00396828,-1.081150113,9.732404178
0.5904,-0.107589426,-0.0280278,0.028288089,-0.09527204,-0.023660976,0.539613851,-1.50964999,-2.560029274,-0.066313166,0.294369768,-0.853665376,9.689521963
0.5912,-0.108435517,-0.028774141,0.028046938,-0.121399302,-0.027499741,0.603567616,-1.845184577,-0.250335316,-0.062392103,0.408973795,-1.157586729,9.754381421
0.592,-0.109278869,-0.029520073,0.027805609,-0.109964079,-0.02570959,0.638691527,2.866962215,0.837231094,-0.065298362,0.279107431,-1.04694761,9.906983835
0.5928,-0.11011946,-0.030265586,0.027564105,-0.098439471,-0.020725725,0.569091521,-0.745990593,-3.715916314,-0.056979641,0.363738081,-0.826374284,9.820828888
0.5936,-0.110957269,-0.031010668,0.027322428,-0.116027217,-0.055457291,0.559575751,-3.36335196,-0.515902491,-0.054548394,0.738448218,-1.114611797,9.810500759
0.5944,-0.111792274,-0.031755309,0.027080577,-0.125335128,-0.024889339,0.567769902,0.663010143,2.994498005,-0.05149362,0.392938716,-1.38030063,9.912591924
0.5952,-0.112624455,-0.0324995,0.026838555,-0.110706492,-0.031498692,0.626464202,3.748238428,2.24360303,-0.057707212,0.420706705,-0.897745446,9.951079032
0.596,-0.11345379,-0.033243228,0.026596364,-0.095358703,-0.006913482,0.640462965,-2.10574502,0.137179113,-0.067450288,0.123106591,-0.929159402,9.637248161
0.5968,-0.114280258,-0.033986484,0.026354005,-0.127460643,-0.030409211,0.579076013,-4.712406027,-2.229150084,-0.057178216,0.46071237,-1.343456803,9.724927661
0.5976,-0.115103839,-0.034729257,0.02611148,-0.133018656,-0.024795768,0.645872638,0.888328752,1.119648801,-0.061216951,0.309568439,-1.146917642,9.671762443
0.5984,-0.115924512,-0.035471536,0.025868789,-0.120320455,-0.021388722,0.554963022,3.477199517,-1.72990144,-0.057751785,0.094901135,-1.230495777,9.721259163
0.5992,-0.116742256,-0.036213311,0.025625935,-0.105234288,-0.038650986,0.643980844,-0.340006824,-2.02788556,-0.05849512,0.524210924,-0.859606907,9.84052891
0.6,-0.11755705,-0.036954571,0.025382919,-0.122961082,-0.037665741,0.601916646,-3.146149913,-0.405831512,-0.059899287,0.445055526,-1.25497248,9.588829675
0.6008,-0.118368875,-0.037695307,0.025139743,-0.130411684,-0.041813693,0.600477406,0.306569712,-2.54098263,-0.072786155,0.354424995,-1.337807452,9.722155173
0.6016,-0.119177708,-0.038435506,0.024896408,-0.120511039,-0.057986852,0.580778865,1.80266443,0.903643442,-0.058203708,0.586415445,-1.151489671,9.606097515
0.6024,-0.11998353,-0.039175159,0.024652916,-0.116043362,-0.034568045,0.595568254,-1.531559521,3.71663234,-0.061156367,0.40794101,-1.119198813,9.762431822
0.6032,-0.120786321,-0.039914256,0.024409268,-0.132765801,-0.028301572,0.631078091,-0.601813051,-2.602265131,-0.053621736,0.234074816,-1.406165917,9.486078575
0.604,-0.12158606,-0.040652785,0.024165466,-0.120818698,-0.055493226,0.584740129,2.430955937,-2.758904762,-0.064149935,0.628276018,-1.127329054,9.54241494
0.6048,-0.122382726,-0.041390737,0.023921512,-0.113339755,-0.050376465,0.631145422,-1.93841345,3.17645858,-0.063223582,0.573941765,-1.162693094,9.513655834
0.6056,-0.123176301,-0.0421281,0.023677406,-0.136310412,-0.030101562,0.634901501,-0.840274523,-2.334703641,-0.069524929,0.295713385,-1.432924225,9.634485034
0.6064,-0.123966764,-0.042864864,0.02343315,-0.120048931,-0.069101026,0.577884735,2.621433632,-1.068772313,-0.055840692,0.374155353,-1.053772991,9.739444694
0.6072,-0.124754094,-0.04360102,0.023188747,-0.115321091,-0.038631684,0.586347607,-0.022458551,1.090228903,-0.064046839,0.442103279,-1.271590964,9.697198495
0.608,-0.125538272,-0.044336555,0.022944197,-0.120261848,-0.060399712,0.643999236,-1.543046137,-2.434251687,-0.067579479,0.544825265,-1.102832791,9.515945051
0.6088,-0.126319279,-0.045071461,0.022699502,-0.127686571,-0.058057651,0.563136316,-1.224841102,1.543189154,-0.056763832,0.48923505,-1.231523923,9.943383146
0.6096,-0.127097094,-0.045805726,0.022454664,-0.130095011,-0.048074786,0.636626194,0.206619036,3.058294315,-0.055274115,0.473150763,-1.334271923,9.749710129
0.6104,-0.127871697,-0.046539339,0.022209684,-0.125954548,-0.033643405,0.631812106,-0.13983324,0.797232104,-0.057018652,0.208753066,-1.191870044,9.677192701
0.6112,-0.12864307,-0.047272292,0.021964564,-0.131199456,-0.041695068,0.642650423,-0.554945862,-3.276736934,-0.058994207,0.44253775,-1.261989815,9.828497034
0.612,-0.129411192,-0.048004573,0.021719305,-0.130450877,-0.059992994,0.583074377,-0.096431235,-0.819664403,-0.075930997,0.620157859,-1.259037659,9.660965007
0.6128,-0.130176045,-0.048736171,0.021473909,-0.131967283,-0.048247657,0.621281635,0.136761288,0.942051174,-0.061514212,0.534184803,-1.202463949,9.604947402
0.6136,-0.130937609,-0.049467077,0.021228377,-0.129375202,-0.052499157,0.576379844,0.877876018,-0.132107201,-0.063882539,0.47600732,-1.217553072,9.613774398
0.6144,-0.131695864,-0.050197279,0.020982711,-0.124952379,-0.049362627,0.589048972,0.574387554,-0.759613686,-0.06096952,0.512369482,-1.149814278,9.744402192
0.6152,-0.132450792,-0.050926769,0.020736912,-0.1248082,-0.058533716,0.606696397,-1.629133945,0.125090638,-0.05739617,0.61081498,-1.259379063,9.823900408
0.616,-0.133202373,-0.051655534,0.020490983,-0.138063301,-0.048401893,0.622609795,-1.049984726,-0.485993398,-0.051189786,0.419447363,-1.417547897,9.85835627
0.6168,-0.133950589,-0.052383566,0.020244924,-0.133232941,-0.06247538,0.603436248,0.029873054,-1.710521942,-0.066222187,0.407000943,-1.37539241,9.689691832
0.6176,-0.134695421,-0.053110852,0.019998737,-0.137803556,-0.062080803,0.615979056,-0.137038009,1.749612513,-0.064682407,0.624395139,-1.468822246,9.670082268
0.6184,-0.135436849,-0.053837385,0.019752424,-0.134306845,-0.048428921,0.650984671,-0.833897518,0.978717427,-0.064452387,0.498197157,-1.281307505,9.666664763
0.6192,-0.136174855,-0.054563151,0.019505986,-0.14448156,-0.054241721,0.620890095,1.543541047,-0.158265682,-0.064007539,0.399941204,-1.427974723,9.709084929
0.62,-0.136909421,-0.055288143,0.019259425,-0.122010429,-0.049668793,0.610347662,0.126620073,-1.583818854,-0.059425321,0.389254695,-1.012419544,9.765800343
0.6208,-0.137640528,-0.056012349,0.019012742,-0.143536975,-0.066912756,0.605610565,-0.912813808,-0.755766135,-0.061661746,0.505743051,-1.494585721,9.67804453
0.6216,-0.138368157,-0.056735758,0.018765939,-0.129310899,-0.055710888,0.640229903,-0.132077583,2.524111141,-0.058579367,0.438273069,-1.218663654,9.631905782
0.6224,-0.139092289,-0.057458362,0.018519018,-0.144584819,-0.046723149,0.660360613,-1.634285979,-0.32945026,-0.061198838,0.34783676,-1.44965555,9.724053732
0.6232,-0.139812908,-0.058180148,0.01827198,-0.142352155,-0.058376706,0.595291163,2.50389839,0.283734609,-0.067158475,0.575023732,-1.319481832,9.547978078
0.624,-0.140529994,-0.058901108,0.018024826,-0.124556875,-0.044490436,0.653632626,2.019414596,-2.155320664,-0.05230081,0.363720414,-1.2620901,9.630504672
0.6248,-0.141243529,-0.059621231,0.017777558,-0.126206042,-0.075642839,0.608752139,-2.02030791,-3.395768221,-0.055230477,0.676662029,-1.177918819,9.66543846
0.6256,-0.141953496,-0.060340506,0.017530178,-0.140709411,-0.07164219,0.661056139,-1.466990624,1.378138029,-0.062376327,0.647848198,-1.406364628,9.789708403
0.6264,-0.142659876,-0.061058924,0.017282688,-0.137923187,-0.064615541,0.593543385,-0.143876969,-0.297223217,-0.064917531,0.735612933,-1.360833257,9.60878935
